Sensors' Acquisition [Hz]: Acc@104.0 
hh:mm:ss.ms, Annotation , AccX [mg], AccY, AccZ
17:16:08.339,,348,-717,160
17:16:08.349,,493,-903,184
17:16:08.359,,586,-1098,175
17:16:08.369,,705,-1304,151
17:16:08.379,,853,-1462,112
17:16:08.389,,978,-1613,68
17:16:08.399,,1048,-1739,14
17:16:08.409,,1099,-1883,-23
17:16:08.419,,1182,-1980,-70
17:16:08.429,>Gesture,,,
17:16:08.431,,1341,-1998,-377
17:16:08.439,,1341,-1998,-464
17:16:08.449,,1407,-1995,-480
17:16:08.459,,1309,-1932,-472
17:16:08.469,,1189,-1838,-457
17:16:08.479,,1104,-1732,-422
17:16:08.489,,1022,-1632,-343
17:16:08.499,,935,-1551,-263
17:16:08.509,,840,-1462,-192
17:16:08.519,,756,-1368,-132
17:16:08.529,,671,-1281,-75
17:16:08.539,,593,-1166,-41
17:16:08.549,,535,-1065,-43
17:16:08.559,,473,-974,-63
17:16:08.569,,402,-803,-115
17:16:08.579,,316,-743,-174
17:16:08.589,,287,-706,-228
17:16:08.599,,238,-677,-217
17:16:08.609,,192,-619,-205
17:16:08.619,,149,-575,-196
17:16:08.629,,87,-504,-200
17:16:08.639,,31,-420,-214
17:16:08.649,,-16,-343,-224
17:16:08.659,,-80,-274,-211
17:16:08.669,,-135,-212,-219
17:16:08.679,,-167,-146,-258
17:16:08.689,,-184,-72,-298
17:16:08.699,,-177,68,-340
17:16:08.709,,-201,106,-362
17:16:08.719,,-250,105,-376
17:16:08.729,,-274,65,-333
17:16:08.739,,-284,45,-293
17:16:08.749,,-292,59,-263
17:16:08.759,,-291,103,-233
17:16:08.769,,-282,167,-218
17:16:08.779,,-253,236,-213
17:16:08.789,,-218,293,-216
17:16:08.799,,-156,323,-257
17:16:08.809,,-128,336,-277
17:16:08.819,,-103,341,-298
17:16:08.829,,-22,399,-279
17:16:08.839,,-20,387,-229
17:16:08.849,,-21,405,-177
17:16:08.859,,42,446,-149
17:16:08.869,,139,500,-121
17:16:08.879,,278,572,-141
17:16:08.889,,396,660,-193
17:16:08.899,,512,722,-347
17:16:08.909,,633,850,-494
17:16:08.919,,686,1080,-584
17:16:08.929,,670,1412,-718
17:16:08.939,,494,1729,-904
17:16:08.949,,340,1899,-1060
17:16:08.959,,562,1794,-906
17:16:08.969,,689,1639,-777
17:16:08.979,,677,1620,-620
17:16:08.989,,745,1746,-656
17:16:08.999,,836,1939,-774
17:16:09.009,,880,1997,-959
17:16:09.019,,933,1997,-1095
17:16:09.029,,964,1997,-1152
17:16:09.039,,971,1997,-1231
17:16:09.049,,995,1997,-1292
17:16:09.059,,1029,1958,-1319
17:16:09.069,,1019,1880,-1221
17:16:09.079,,1134,1800,-1203
17:16:09.089,,1022,1694,-1190
17:16:09.099,,1006,1682,-1137
17:16:09.109,,949,1694,-1107
17:16:09.119,,892,1706,-1064
17:16:09.129,,848,1707,-982
17:16:09.139,,788,1681,-935
17:16:09.149,,705,1644,-918
17:16:09.159,,668,1587,-918
17:16:09.169,,633,1571,-906
17:16:09.179,,575,1552,-846
17:16:09.189,,528,1482,-752
17:16:09.199,,479,1423,-637
17:16:09.209,,440,1316,-472
17:16:09.219,,295,1138,-462
17:16:09.229,,250,1058,-470
17:16:09.239,,186,1008,-426
17:16:09.249,,134,912,-410
17:16:09.259,,106,823,-364
17:16:09.269,,49,776,-315
17:16:09.279,,34,672,-254
17:16:09.289,,50,562,-179
17:16:09.299,,40,510,-115
17:16:09.309,,58,451,-122
17:16:09.319,,81,390,-137
17:16:09.329,,103,310,-186
17:16:09.339,,112,182,-146
17:16:09.349,,49,180,-79
17:16:09.359,,56,177,-78
17:16:09.369,,120,169,-91
17:16:09.379,,252,142,-107
17:16:09.389,,368,80,-114
17:16:09.399,,423,65,-104
17:16:09.409,,411,109,-67
17:16:09.419,,326,235,-51
17:16:09.429,,354,303,-151
17:16:09.439,,567,236,-307
17:16:09.449,,864,63,-501
17:16:09.459,,1201,-211,-714
17:16:09.469,,1585,-879,-979
17:16:09.479,,1535,-1083,-930
17:16:09.489,,1322,-1166,-796
17:16:09.499,,1061,-1188,-611
17:16:09.509,,832,-1162,-477
17:16:09.519,,694,-1090,-399
17:16:09.529,,636,-1031,-358
17:16:09.539,,629,-1039,-340
17:16:09.549,,642,-1097,-324
17:16:09.559,,659,-1166,-302
17:16:09.569,,704,-1256,-309
17:16:09.579,,764,-1345,-323
17:16:09.589,,836,-1460,-351
17:16:09.599,,963,-1701,-387
17:16:09.609,,981,-1870,-359
17:16:09.619,,990,-1973,-346
17:16:09.629,,945,-1998,-273
17:16:09.639,,866,-1998,-213
17:16:09.649,,803,-1977,-182
17:16:09.659,,749,-1868,-208
17:16:09.669,,688,-1751,-238
17:16:09.679,,594,-1662,-199
17:16:09.689,,518,-1641,-76
17:16:09.699,,503,-1636,10
17:16:09.709,,463,-1537,23
17:16:09.719,,426,-1397,-10
17:16:09.729,,388,-1142,-17
17:16:09.739,,334,-1016,-10
17:16:09.749,,268,-878,22
17:16:09.759,,205,-743,39
17:16:09.881,,-77,360,2
17:16:09.882,,-77,360,2
17:16:09.883,,-77,360,2
17:16:09.885,,-77,360,2
17:16:09.886,,-77,360,2
17:16:09.887,,-38,380,-54
17:16:09.889,,-38,380,-54
17:16:09.890,,-38,380,-54
17:16:09.891,,-38,380,-54
17:16:09.893,,-38,380,-54
17:16:09.894,,-38,380,-54
17:16:09.895,,-38,380,-54
17:16:09.897,,42,426,-108
17:16:09.899,,42,426,-108
17:16:09.909,,150,503,-152
17:16:09.919,,218,562,-214
17:16:09.929,,245,622,-275
17:16:09.939,,307,722,-344
17:16:09.949,,329,804,-393
17:16:09.959,,334,825,-432
17:16:09.969,,313,867,-484
17:16:09.979,,204,1042,-677
17:16:09.989,,143,1072,-714
17:16:09.999,,157,1010,-654
17:16:10.009,,199,915,-547
17:16:10.019,,293,892,-463
17:16:10.029,,405,1008,-421
17:16:10.039,,451,1256,-441
17:16:10.049,,412,1566,-515
17:16:10.059,,372,1789,-567
17:16:10.069,,405,1901,-510
17:16:10.079,,427,1989,-485
17:16:10.089,,408,1988,-435
17:16:10.099,,345,1945,-457
17:16:10.109,,164,1958,-567
17:16:10.119,,142,1939,-498
17:16:10.129,,84,1969,-523
17:16:10.139,,68,1995,-564
17:16:10.149,,135,1997,-641
17:16:10.159,,176,1997,-669
17:16:10.169,,211,1997,-684
17:16:10.179,,247,1997,-683
17:16:10.189,,223,1997,-698
17:16:10.199,,226,1997,-709
17:16:10.209,,231,1997,-709
17:16:10.219,,205,1997,-718
17:16:10.229,,189,1997,-722
17:16:10.239,,230,1997,-600
17:16:10.249,,177,1997,-502
17:16:10.259,,111,1983,-426
17:16:10.269,,78,1864,-354
17:16:10.279,,69,1736,-306
17:16:10.289,,44,1637,-264
17:16:10.299,,11,1532,-250
17:16:10.309,,10,1437,-261
17:16:10.319,,47,1389,-286
17:16:10.329,,19,1330,-296
17:16:10.339,,-21,1256,-278
17:16:10.349,,-60,1183,-267
17:16:10.359,,-91,1084,-203
17:16:10.369,,-92,922,-124
17:16:10.379,,-44,843,-118
17:16:10.389,,-16,754,-108
17:16:10.399,,-13,666,-99
17:16:10.409,,-39,625,-102
17:16:10.419,,-46,590,-140
17:16:10.429,,13,529,-195
17:16:10.439,,52,482,-229
17:16:10.449,,27,439,-256
17:16:10.459,,54,424,-187
17:16:10.469,,31,419,-172
17:16:10.479,,1,392,-224
17:16:10.489,,24,361,-304
17:16:10.499,,85,307,-309
17:16:10.509,,96,223,-259
17:16:10.519,,138,135,-274
17:16:10.529,,219,58,-282
17:16:10.539,,334,-50,-306
17:16:10.549,,417,-140,-231
17:16:10.559,,434,-234,-165
17:16:10.569,,413,-341,-102
17:16:10.579,,376,-391,-33
17:16:10.589,,337,-396,-8
17:16:10.599,,326,-391,-19
17:16:10.609,,334,-388,-31
17:16:10.619,,362,-394,-13
17:16:10.629,,448,-566,11
17:16:10.639,,496,-656,25
17:16:10.649,,573,-769,43
17:16:10.659,,694,-985,90
17:16:10.669,,815,-1265,142
17:16:10.679,,853,-1470,139
17:16:10.689,,806,-1555,158
17:16:10.699,,784,-1611,102
17:16:10.709,,798,-1671,55
17:16:10.719,,807,-1714,-7
17:16:10.729,,825,-1751,-10
17:16:10.739,,845,-1849,22
17:16:10.749,,879,-1998,105
17:16:10.759,,943,-1998,101
17:16:10.769,,1028,-1998,82
17:16:10.779,,1077,-1998,65
17:16:10.789,,1037,-1998,19
17:16:10.799,,957,-1998,-25
17:16:10.809,,883,-1998,-37
17:16:10.819,,828,-1998,-30
17:16:10.829,,739,-1996,5
17:16:10.839,,618,-1887,45
17:16:10.849,,579,-1610,102
17:16:10.859,,326,-1727,126
17:16:10.869,,392,-1506,282
17:16:10.879,,205,-1374,291
17:16:10.889,,119,-1224,311
17:16:10.899,,199,-1048,260
17:16:10.909,,241,-913,192
17:16:10.919,,167,-882,119
17:16:10.929,,154,-826,119
17:16:10.939,,241,-717,119
17:16:10.949,,249,-592,80
17:16:10.959,,187,-458,3
17:16:10.969,,130,-342,-52
17:16:10.979,,86,-247,-62
17:16:10.989,,56,-195,-74
17:16:10.999,,53,-168,-75
17:16:11.009,,53,-119,-88
17:16:11.019,,90,-102,-111
17:16:11.029,,103,-56,-121
17:16:11.039,,77,-8,-155
17:16:11.049,,100,46,-197
17:16:11.059,,160,87,-250
17:16:11.069,,212,122,-308
17:16:11.079,,247,169,-343
17:16:11.089,,287,212,-354
17:16:11.099,,320,235,-357
17:16:11.109,,349,271,-358
17:16:11.119,,376,352,-392
17:16:11.129,,384,463,-423
17:16:11.139,,333,677,-528
17:16:11.149,,326,798,-594
17:16:11.159,,306,903,-679
17:16:11.169,,284,983,-736
17:16:11.179,,290,1012,-763
17:16:11.189,,348,955,-709
17:16:11.199,,375,880,-599
17:16:11.209,,340,811,-473
17:16:11.219,,269,815,-369
17:16:11.229,,218,885,-306
17:16:11.239,,191,959,-253
17:16:11.249,,158,1018,-226
17:16:11.259,,150,1074,-245
17:16:11.269,,249,1121,-334
17:16:11.385,,741,1997,-858
17:16:11.386,,741,1997,-858
17:16:11.388,,741,1997,-858
17:16:11.389,,741,1997,-945
17:16:11.390,,683,1997,-945
17:16:11.392,,683,1997,-945
17:16:11.393,,683,1997,-945
17:16:11.394,,683,1997,-945
17:16:11.396,,683,1997,-945
17:16:11.397,,683,1997,-945
17:16:11.398,,683,1997,-939
17:16:11.400,,670,1997,-939
17:16:11.401,,670,1997,-939
17:16:11.409,,638,1997,-863
17:16:11.419,,580,1997,-799
17:16:11.429,,550,1997,-757
17:16:11.439,,537,1997,-742
17:16:11.449,,533,1997,-759
17:16:11.459,,543,1997,-794
17:16:11.469,,559,1997,-810
17:16:11.479,,561,1997,-790
17:16:11.489,,558,1997,-752
17:16:11.499,,532,1997,-707
17:16:11.509,,496,1996,-667
17:16:11.519,,419,1915,-579
17:16:11.529,,374,1840,-523
17:16:11.539,,331,1751,-448
17:16:11.549,,316,1661,-391
17:16:11.559,,307,1591,-371
17:16:11.569,,252,1518,-290
17:16:11.579,,231,1453,-293
17:16:11.589,,252,1342,-283
17:16:11.599,,163,1239,-288
17:16:11.609,,121,1157,-250
17:16:11.619,,83,1069,-227
17:16:11.629,,62,964,-211
17:16:11.639,,55,849,-176
17:16:11.649,,66,622,-91
17:16:11.659,,88,531,-57
17:16:11.669,,77,455,-33
17:16:11.679,,50,380,-41
17:16:11.689,,17,336,-94
17:16:11.699,,-6,350,-174
17:16:11.709,,-1,362,-250
17:16:11.719,,19,371,-261
17:16:11.729,,68,354,-320
17:16:11.739,,107,284,-319
17:16:11.749,,205,188,-319
17:16:11.759,,56,138,-255
17:16:11.769,,7,106,-204
17:16:11.779,,89,-82,-228
17:16:11.789,,119,-145,-269
17:16:11.799,,127,-161,-318
17:16:11.809,,146,-199,-344
17:16:11.819,,152,-255,-350
17:16:11.829,,122,-299,-341
17:16:11.839,,55,-316,-259
17:16:11.849,,0,-360,-144
17:16:11.859,,-58,-397,-64
17:16:11.869,,-68,-450,-36
17:16:11.879,,-81,-511,-31
17:16:11.889,,-67,-569,-18
17:16:11.899,,-32,-644,-7
17:16:11.909,,3,-705,-49
17:16:11.919,,-33,-705,-22
17:16:11.929,,-37,-781,62
17:16:11.939,,-11,-872,158
17:16:11.949,,-46,-929,228
17:16:11.959,,-100,-1010,275
17:16:11.969,,-76,-1137,277
17:16:11.979,,-38,-1243,315
17:16:11.989,,15,-1334,266
17:16:11.999,,106,-1472,209
17:16:12.009,,225,-1617,145
17:16:12.019,,339,-1818,138
17:16:12.029,,425,-1987,172
17:16:12.039,,418,-1998,200
17:16:12.049,,353,-1998,221
17:16:12.059,,321,-1998,255
17:16:12.069,,287,-1998,272
17:16:12.079,,249,-1998,265
17:16:12.089,,281,-1998,249
17:16:12.099,,251,-1998,209
17:16:12.109,,270,-1998,202
17:16:12.119,,241,-1998,186
17:16:12.129,,211,-1942,196
17:16:12.139,,203,-1786,156
17:16:12.149,,222,-1592,181
17:16:12.159,,162,-1275,128
17:16:12.169,,125,-1226,127
17:16:12.179,,-57,-1075,167
17:16:12.189,,-136,-1075,165
17:16:12.199,,-114,-968,204
17:16:12.209,,-115,-800,239
17:16:12.219,,-194,-646,197
17:16:12.229,,-339,-684,153
17:16:12.239,,-310,-488,144
17:16:12.249,,-310,-443,98
17:16:12.259,,-281,-358,-3
17:16:12.269,,-259,-365,-54
17:16:12.279,,-230,-357,-105
17:16:12.289,,-177,-315,-169
17:16:12.299,,-179,-274,-195
17:16:12.309,,-209,-222,-210
17:16:12.319,,-269,-163,-216
17:16:12.329,,-306,-106,-225
17:16:12.339,,-280,-67,-238
17:16:12.349,,-251,-20,-258
17:16:12.359,,-200,35,-263
17:16:12.369,,-149,84,-289
17:16:12.379,,-134,136,-310
17:16:12.389,,-161,188,-305
17:16:12.399,,-203,234,-329
17:16:12.409,,-201,276,-361
17:16:12.419,,-291,318,-373
17:16:12.429,,-281,315,-363
17:16:12.439,,-211,303,-347
17:16:12.449,,-77,312,-332
17:16:12.459,,-9,360,-325
17:16:12.469,,40,406,-311
17:16:12.479,,55,506,-315
17:16:12.489,,47,639,-360
17:16:12.499,,54,760,-399
17:16:12.509,,37,882,-387
17:16:12.519,,-62,961,-370
17:16:12.529,,-149,1030,-408
17:16:12.539,,-186,1141,-458
17:16:12.549,,-145,1124,-459
17:16:12.559,,35,1086,-398
17:16:12.569,,164,1040,-358
17:16:12.579,,175,1009,-317
17:16:12.589,,189,1005,-301
17:16:12.599,,188,1059,-293
17:16:12.609,,170,1160,-313
17:16:12.619,,169,1270,-311
17:16:12.629,,182,1359,-305
17:16:12.639,,224,1397,-310
17:16:12.649,,286,1415,-316
17:16:12.659,,403,1436,-309
17:16:12.669,,458,1480,-352
17:16:12.679,,463,1631,-439
17:16:12.689,,397,1733,-511
17:16:12.699,,405,1849,-582
17:16:12.709,,475,1957,-615
17:16:12.719,,553,1984,-606
17:16:12.729,,586,1994,-602
17:16:12.739,,614,1997,-637
17:16:12.749,,619,1997,-714
17:16:12.759,,577,1997,-799
17:16:12.879,,223,1533,-487
17:16:12.881,,223,1533,-487
17:16:12.882,,223,1533,-487
17:16:12.883,,178,1486,-468
17:16:12.885,,178,1486,-468
17:16:12.886,,178,1486,-468
17:16:12.887,,178,1486,-468
17:16:12.889,,178,1486,-468
17:16:12.890,,178,1486,-468
17:16:12.892,,178,1486,-449
17:16:12.893,,156,1437,-449
17:16:12.894,,156,1437,-449
17:16:12.896,,156,1437,-449
17:16:12.899,,156,1437,-449
17:16:12.909,,126,1392,-410
17:16:12.919,,78,1346,-363
17:16:12.929,,55,1231,-264
17:16:12.939,,46,1154,-231
17:16:12.949,,82,1079,-198
17:16:12.959,,75,1018,-176
17:16:12.969,,25,992,-157
17:16:12.979,,-72,1005,-138
17:16:12.989,,-146,1015,-100
17:16:12.999,,-169,1016,-85
17:16:13.009,,-174,1016,-107
17:16:13.019,,-142,994,-151
17:16:13.029,,-125,938,-188
17:16:13.039,,-97,841,-195
17:16:13.049,,-52,730,-177
17:16:13.059,,65,471,-130
17:16:13.069,,77,319,-88
17:16:13.079,,70,169,-39
17:16:13.089,,42,48,-27
17:16:13.099,,30,-15,-83
17:16:13.109,,18,-37,-136
17:16:13.119,,36,-47,-198
17:16:13.129,,79,-88,-296
17:16:13.139,,154,-133,-404
17:16:13.149,,174,-158,-354
17:16:13.159,,209,-272,-241
17:16:13.169,,219,-420,-217
17:16:13.179,,170,-506,-213
17:16:13.189,,115,-596,-197
17:16:13.199,,95,-627,-184
17:16:13.209,,82,-646,-178
17:16:13.219,,70,-635,-187
17:16:13.229,,52,-607,-191
17:16:13.239,,39,-606,-215
17:16:13.249,,36,-612,-212
17:16:13.259,,28,-687,-124
17:16:13.269,,27,-804,-65
17:16:13.279,,56,-912,-23
17:16:13.289,,70,-1007,-10
17:16:13.299,,75,-1078,-27
17:16:13.309,,91,-1120,-88
17:16:13.319,,116,-1132,-151
17:16:13.329,,148,-1181,-185
17:16:13.339,,235,-1212,-208
17:16:13.349,,263,-1371,-144
17:16:13.359,,347,-1537,-82
17:16:13.369,,406,-1747,-9
17:16:13.379,,458,-1954,23
17:16:13.389,,463,-1998,48
17:16:13.399,,456,-1998,34
17:16:13.409,,481,-1998,21
17:16:13.419,,527,-1998,-19
17:16:13.429,,564,-1998,-66
17:16:13.439,,572,-1998,-131
17:16:13.449,,534,-1990,-123
17:16:13.459,,511,-1844,-92
17:16:13.469,,413,-1775,-73
17:16:13.479,,269,-1659,-140
17:16:13.489,,216,-1599,-9
17:16:13.499,,259,-1355,73
17:16:13.509,,195,-1152,-13
17:16:13.519,,-209,-1393,133
17:16:13.529,,-105,-1168,156
17:16:13.539,,146,-1044,194
17:16:13.549,,2,-1017,121
17:16:13.559,,-199,-983,114
17:16:13.569,,-164,-708,110
17:16:13.579,,-134,-621,57
17:16:13.589,,-198,-553,26
17:16:13.599,,-204,-473,-4
17:16:13.609,,-215,-403,-36
17:16:13.619,,-236,-330,-26
17:16:13.629,,-246,-257,-32
17:16:13.639,,-271,-210,-31
17:16:13.649,,-296,-181,-55
17:16:13.659,,-278,-166,-78
17:16:13.669,,-259,-156,-103
17:16:13.679,,-220,-165,-139
17:16:13.689,,-196,-151,-149
17:16:13.699,,-133,-89,-148
17:16:13.709,,-129,-21,-139
17:16:13.719,,-131,73,-126
17:16:13.729,,-116,163,-143
17:16:13.739,,-97,255,-186
17:16:13.749,,-54,333,-232
17:16:13.759,,-27,395,-265
17:16:13.769,,0,432,-300
17:16:13.779,,76,470,-337
17:16:13.789,,142,509,-373
17:16:13.799,,184,553,-393
17:16:13.809,,202,613,-410
17:16:13.819,,222,668,-422
17:16:13.829,,149,880,-483
17:16:13.839,,68,1016,-570
17:16:13.849,,36,1094,-642
17:16:13.859,,87,1077,-647
17:16:13.869,,157,987,-603
17:16:13.879,,270,908,-507
17:16:13.889,,419,870,-435
17:16:13.899,,441,901,-392
17:16:13.909,,433,956,-334
17:16:13.919,,360,983,-287
17:16:13.929,,287,1037,-278
17:16:13.939,,283,1166,-266
17:16:13.949,,283,1287,-337
17:16:13.959,,388,1499,-430
17:16:13.969,,495,1562,-486
17:16:13.979,,646,1652,-361
17:16:13.989,,813,1758,-438
17:16:13.999,,773,1940,-532
17:16:14.009,,685,1997,-666
17:16:14.019,,557,1997,-756
17:16:14.029,,408,1997,-826
17:16:14.039,,352,1997,-844
17:16:14.049,,365,1997,-798
17:16:14.059,,399,1997,-772
17:16:14.069,,337,1997,-740
17:16:14.079,,322,1997,-766
17:16:14.089,,393,1997,-774
17:16:14.099,,420,1997,-783
17:16:14.109,,421,1992,-768
17:16:14.119,,366,1987,-720
17:16:14.129,,305,1943,-650
17:16:14.139,,244,1852,-570
17:16:14.149,,180,1770,-484
17:16:14.159,,150,1705,-433
17:16:14.169,,141,1649,-388
17:16:14.179,,161,1598,-342
17:16:14.189,,165,1515,-309
17:16:14.199,,136,1444,-283
17:16:14.209,,86,1379,-326
17:16:14.219,,37,1183,-327
17:16:14.229,,-5,1061,-301
17:16:14.239,,-29,925,-266
17:16:14.249,,-49,821,-218
17:16:14.364,,-256,349,-121
17:16:14.366,,-256,349,-121
17:16:14.367,,-299,280,-108
17:16:14.368,,-299,280,-108
17:16:14.370,,-299,280,-108
17:16:14.371,,-299,280,-108
17:16:14.373,,-299,280,-108
17:16:14.374,,-299,280,-108
17:16:14.375,,-299,280,-108
17:16:14.377,,-331,200,-116
17:16:14.378,,-331,200,-116
17:16:14.379,,-331,200,-116
17:16:14.381,,-331,200,-116
17:16:14.389,,-332,126,-128
17:16:14.399,,-293,71,-137
17:16:14.409,,-199,5,-150
17:16:14.419,,-120,-66,-165
17:16:14.429,,-82,-134,-175
17:16:14.439,,-48,-178,-195
17:16:14.449,,-16,-226,-188
17:16:14.459,,20,-271,-195
17:16:14.469,,118,-374,-208
17:16:14.479,,105,-448,-188
17:16:14.489,,94,-542,-165
17:16:14.499,,81,-615,-147
17:16:14.509,,58,-688,-120
17:16:14.519,,22,-741,-101
17:16:14.529,,-19,-738,-108
17:16:14.539,,-18,-707,-131
17:16:14.549,,-21,-662,-110
17:16:14.559,,-38,-654,-105
17:16:14.569,,6,-690,-105
17:16:14.579,,14,-749,-72
17:16:14.589,,3,-770,-41
17:16:14.599,,54,-947,28
17:16:14.609,,91,-1074,82
17:16:14.619,,135,-1210,119
17:16:14.629,,110,-1359,147
17:16:14.639,,128,-1433,155
17:16:14.649,,183,-1525,165
17:16:14.659,,222,-1551,159
17:16:14.669,,235,-1677,182
17:16:14.679,,243,-1796,189
17:16:14.689,,280,-1947,193
17:16:14.699,,307,-1998,264
17:16:14.709,,355,-1998,288
17:16:14.719,,381,-1998,323
17:16:14.729,,308,-1998,332
17:16:14.739,,257,-1998,352
17:16:14.749,,240,-1998,351
17:16:14.759,,294,-1998,367
17:16:14.769,,238,-1998,345
17:16:14.779,,226,-1942,316
17:16:14.789,,218,-1769,299
17:16:14.799,,205,-1606,269
17:16:14.809,,191,-1408,191
17:16:14.819,,89,-1354,164
17:16:14.829,,100,-1148,154
17:16:14.839,,132,-1035,101
17:16:14.849,,23,-1089,139
17:16:14.859,,132,-984,110
17:16:14.869,,101,-934,101
17:16:14.879,,34,-871,86
17:16:14.889,,16,-783,50
17:16:14.899,,-21,-700,44
17:16:14.909,,-67,-617,48
17:16:14.919,,-84,-531,50
17:16:14.929,,-95,-486,39
17:16:14.939,,-115,-451,30
17:16:14.949,,-129,-407,-11
17:16:14.959,,-126,-337,-73
17:16:14.969,,-106,-264,-106
17:16:14.979,,-65,-169,-208
17:16:14.989,,-22,-116,-232
17:16:14.999,,28,-92,-248
17:16:15.009,,45,-62,-257
17:16:15.019,,9,-7,-257
17:16:15.029,,2,50,-233
17:16:15.039,,6,79,-245
17:16:15.049,,28,100,-271
17:16:15.059,,43,142,-298
17:16:15.069,,48,212,-349
17:16:15.079,,76,271,-344
17:16:15.089,,138,340,-389
17:16:15.099,,167,434,-384
17:16:15.109,,203,625,-399
17:16:15.119,,125,738,-436
17:16:15.129,,55,835,-463
17:16:15.139,,-65,844,-512
17:16:15.149,,-185,745,-528
17:16:15.159,,-224,583,-417
17:16:15.169,,-109,404,-269
17:16:15.179,,37,345,-144
17:16:15.189,,152,447,-91
17:16:15.199,,221,660,-101
17:16:15.209,,220,879,-146
17:16:15.219,,270,1048,-125
17:16:15.229,,245,1181,-45
17:16:15.239,,162,1265,195
17:16:15.249,,223,1360,264
17:16:15.259,,294,1558,220
17:16:15.269,,334,1731,192
17:16:15.279,,410,1832,92
17:16:15.289,,548,1918,33
17:16:15.299,,568,1954,-77
17:16:15.309,,453,1991,-104
17:16:15.319,,495,1997,-244
17:16:15.329,,549,1997,-309
17:16:15.339,,582,1997,-371
17:16:15.349,,632,1997,-403
17:16:15.359,,624,1997,-431
17:16:15.369,,632,1997,-433
17:16:15.379,,577,1997,-417
17:16:15.389,,556,1997,-408
17:16:15.399,,526,1997,-401
17:16:15.409,,492,1996,-415
17:16:15.419,,494,1982,-405
17:16:15.429,,482,1940,-391
17:16:15.439,,449,1878,-392
17:16:15.449,,417,1826,-392
17:16:15.459,,381,1800,-385
17:16:15.469,,353,1785,-361
17:16:15.479,,307,1779,-354
17:16:15.489,,277,1772,-316
17:16:15.499,,275,1702,-265
17:16:15.509,,277,1634,-223
17:16:15.519,,283,1581,-165
17:16:15.529,,251,1528,-135
17:16:15.539,,198,1488,-142
17:16:15.549,,164,1453,-149
17:16:15.559,,141,1420,-154
17:16:15.569,,125,1373,-147
17:16:15.579,,116,1317,-150
17:16:15.589,,111,1221,-161
17:16:15.599,,84,1085,-158
17:16:15.609,,72,948,-148
17:16:15.619,,36,832,-86
17:16:15.629,,21,614,-73
17:16:15.639,,-25,541,-48
17:16:15.649,,-134,505,-52
17:16:15.659,,-230,495,-51
17:16:15.669,,-274,493,-42
17:16:15.679,,-323,515,-42
17:16:15.689,,-357,496,-58
17:16:15.699,,-350,464,-24
17:16:15.709,,-337,421,12
17:16:15.719,,-339,369,10
17:16:15.729,,-302,321,-25
17:16:15.739,,-266,293,-59
17:16:15.749,,-217,165,-163
17:16:15.870,,-131,-273,-107
17:16:15.871,,-131,-273,-107
17:16:15.873,,-131,-273,-107
17:16:15.874,,-131,-273,-107
17:16:15.875,,-131,-273,-107
17:16:15.877,,-131,-273,-107
17:16:15.878,,-131,-273,-107
17:16:15.879,,-69,-326,-94
17:16:15.881,,-69,-326,-94
17:16:15.882,,-69,-326,-94
17:16:15.883,,-69,-326,-94
17:16:15.885,,-69,-326,-94
17:16:15.886,,-69,-326,-94
17:16:15.889,,-28,-396,-99
17:16:15.899,,7,-428,-90
17:16:15.909,,-4,-419,-57
17:16:15.919,,-99,-384,-41
17:16:15.929,,-138,-360,-60
17:16:15.939,,-90,-373,-38
17:16:15.949,,-34,-413,59
17:16:15.959,,87,-589,123
17:16:15.969,,177,-813,231
17:16:15.979,,274,-1069,308
17:16:15.989,,426,-1363,346
17:16:15.999,,533,-1581,350
17:16:16.009,,413,-1773,334
17:16:16.019,,396,-1854,340
17:16:16.029,,444,-1975,383
17:16:16.039,,522,-1998,434
17:16:16.049,,575,-1998,516
17:16:16.059,,622,-1998,594
17:16:16.069,,663,-1998,623
17:16:16.079,,677,-1998,570
17:16:16.089,,662,-1998,531
17:16:16.099,,628,-1998,516
17:16:16.109,,594,-1998,505
17:16:16.119,,592,-1998,484
17:16:16.129,,583,-1998,457
17:16:16.139,,509,-1849,431
17:16:16.149,,447,-1616,406
17:16:16.159,,401,-1354,330
17:16:16.169,,216,-1079,380
17:16:16.179,,122,-805,373
17:16:16.189,,141,-469,428
17:16:16.199,,245,-172,332
17:16:16.209,,-58,-467,108
17:16:16.219,,-307,-784,453
17:16:16.229,,-106,-446,391
17:16:16.239,,163,-240,371
17:16:16.249,,-115,-162,358
17:16:16.259,,-369,-242,243
17:16:16.269,,-236,-86,202
17:16:16.279,,-200,-33,136
17:16:16.289,,-202,-60,88
17:16:16.299,,-144,-111,21
17:16:16.309,,-51,-140,-95
17:16:16.319,,-7,-167,-164
17:16:16.329,,53,-162,-233
17:16:16.339,,119,-121,-252
17:16:16.349,,129,-92,-252
17:16:16.359,,155,-64,-310
17:16:16.369,,208,27,-344
17:16:16.379,,178,192,-369
17:16:16.389,,85,415,-419
17:16:16.399,,73,527,-440
17:16:16.409,,100,628,-472
17:16:16.419,,84,732,-530
17:16:16.429,,41,830,-584
17:16:16.439,,-1,942,-632
17:16:16.449,,-33,1016,-640
17:16:16.459,,-55,1025,-649
17:16:16.469,,-54,981,-609
17:16:16.479,,-5,897,-545
17:16:16.489,,47,814,-450
17:16:16.499,,40,810,-453
17:16:16.509,,89,899,-404
17:16:16.519,,307,1136,-289
17:16:16.529,,363,1294,-284
17:16:16.539,,446,1485,-275
17:16:16.549,,449,1661,-366
17:16:16.559,,421,1778,-472
17:16:16.569,,421,1882,-606
17:16:16.579,,396,1898,-547
17:16:16.589,,395,1895,-605
17:16:16.599,,333,1894,-639
17:16:16.609,,308,1922,-714
17:16:16.619,,371,1940,-739
17:16:16.629,,439,1932,-750
17:16:16.638,,514,1923,-746
17:16:16.649,,551,1898,-853
17:16:16.659,,456,1902,-906
17:16:16.668,,339,1848,-919
17:16:16.679,,313,1757,-867
17:16:16.689,,259,1673,-793
17:16:16.698,,165,1635,-716
17:16:16.709,,103,1613,-692
17:16:16.719,,70,1588,-676
17:16:16.728,,55,1548,-658
17:16:16.739,,40,1529,-666
17:16:16.749,,58,1511,-683
17:16:16.758,,97,1472,-702
17:16:16.769,,133,1429,-718
17:16:16.778,,84,1308,-619
17:16:16.788,,45,1252,-592
17:16:16.799,,26,1207,-525
17:16:16.808,,-14,1160,-457
17:16:16.818,,-67,1120,-382
17:16:16.829,,-126,1090,-350
17:16:16.838,,-153,1033,-358
17:16:16.848,,-150,972,-374
17:16:16.859,,-132,911,-417
17:16:16.868,,-111,837,-435
17:16:16.878,,-91,733,-433
17:16:16.889,,-78,635,-419
17:16:16.898,,-124,562,-332
17:16:16.908,,-180,403,-290
17:16:16.919,,-221,348,-236
17:16:16.928,,-229,292,-187
17:16:16.938,,-245,227,-142
17:16:16.948,,-264,180,-117
17:16:16.958,,-272,144,-111
17:16:16.968,,-263,123,-121
17:16:16.978,,-248,132,-157
17:16:16.988,,-252,126,-162
17:16:16.998,,-235,80,-163
17:16:17.008,,-222,31,-132
17:16:17.018,,-251,-15,-79
17:16:17.028,,-280,-50,30
17:16:17.038,,-256,-93,52
17:16:17.048,,-165,-130,64
17:16:17.058,,-130,-167,86
17:16:17.068,,-138,-201,88
17:16:17.078,,-150,-205,99
17:16:17.088,,-183,-195,124
17:16:17.098,,-177,-239,192
17:16:17.108,,-139,-359,213
17:16:17.118,,-91,-521,258
17:16:17.128,,-43,-675,267
17:16:17.138,,-41,-816,287
17:16:17.148,,-30,-954,320
17:16:17.158,,-17,-1106,342
17:16:17.168,,-87,-1121,281
17:16:17.178,,-71,-1128,237
17:16:17.188,,-58,-1136,213
17:16:17.198,,-25,-1175,183
17:16:17.208,,6,-1241,174
17:16:17.218,,62,-1348,193
17:16:17.228,,114,-1515,241
17:16:17.238,,187,-1723,266
17:16:17.354,,131,-1959,167
17:16:17.356,,131,-1959,167
17:16:17.357,,131,-1959,167
17:16:17.359,,131,-1959,167
17:16:17.360,,131,-1959,167
17:16:17.361,,131,-1959,167
17:16:17.363,,163,-1825,225
17:16:17.364,,163,-1825,225
17:16:17.365,,163,-1825,225
17:16:17.367,,163,-1825,225
17:16:17.368,,163,-1825,225
17:16:17.369,,163,-1825,225
17:16:17.371,,163,-1825,225
17:16:17.378,,199,-1673,255
17:16:17.388,,176,-1477,238
17:16:17.398,,94,-1299,210
17:16:17.408,,1,-1235,209
17:16:17.418,,-7,-1045,243
17:16:17.428,,26,-950,247
17:16:17.438,,-31,-899,252
17:16:17.448,,-85,-838,286
17:16:17.458,,-110,-819,315
17:16:17.468,,-104,-772,337
17:16:17.478,,-150,-702,295
17:16:17.488,,-175,-594,252
17:16:17.498,,-180,-471,234
17:16:17.508,,-195,-358,209
17:16:17.518,,-226,-269,188
17:16:17.528,,-266,-190,174
17:16:17.538,,-266,-159,141
17:16:17.548,,-221,-195,48
17:16:17.558,,-148,-202,13
17:16:17.568,,-86,-168,-27
17:16:17.578,,-53,-102,-71
17:16:17.588,,-14,-21,-104
17:16:17.598,,-4,69,-126
17:16:17.608,,-35,157,-138
17:16:17.618,,-61,236,-143
17:16:17.628,,-81,322,-190
17:16:17.638,,-102,423,-284
17:16:17.648,,-112,515,-371
17:16:17.658,,-106,582,-445
17:16:17.668,,-96,618,-534
17:16:17.678,,-76,726,-562
17:16:17.688,,-63,778,-567
17:16:17.698,,-81,779,-545
17:16:17.708,,-99,751,-496
17:16:17.718,,-158,733,-430
17:16:17.728,,-248,751,-330
17:16:17.738,,-287,782,-248
17:16:17.748,,-262,818,-183
17:16:17.758,,-206,874,-128
17:16:17.768,,-113,952,-116
17:16:17.778,,60,1051,-150
17:16:17.788,,203,1141,-182
17:16:17.798,,348,1292,-291
17:16:17.808,,368,1276,-368
17:16:17.818,,348,1339,-359
17:16:17.828,,311,1423,-383
17:16:17.838,,257,1497,-438
17:16:17.848,,188,1588,-414
17:16:17.858,,121,1664,-416
17:16:17.868,,59,1727,-500
17:16:17.878,,33,1833,-431
17:16:17.888,,138,1926,-537
17:16:17.898,,86,1977,-527
17:16:17.908,,-12,1997,-601
17:16:17.918,,2,1997,-577
17:16:17.928,,14,1997,-587
17:16:17.938,,-22,1997,-578
17:16:17.948,,-50,1991,-549
17:16:17.958,,-70,1936,-505
17:16:17.968,,-71,1855,-487
17:16:17.978,,-60,1784,-476
17:16:17.988,,-65,1736,-495
17:16:17.998,,-54,1705,-533
17:16:18.008,,-35,1680,-566
17:16:18.018,,-15,1647,-566
17:16:18.028,,-12,1614,-551
17:16:18.038,,-36,1606,-538
17:16:18.048,,-43,1606,-512
17:16:18.058,,-62,1513,-422
17:16:18.068,,-72,1454,-382
17:16:18.078,,-102,1389,-341
17:16:18.088,,-118,1312,-318
17:16:18.098,,-127,1244,-311
17:16:18.108,,-125,1194,-300
17:16:18.118,,-112,1143,-291
17:16:18.128,,-81,1070,-290
17:16:18.138,,-50,985,-280
17:16:18.148,,-56,919,-236
17:16:18.158,,-90,878,-214
17:16:18.168,,-141,839,-190
17:16:18.178,,-205,802,-155
17:16:18.188,,-361,717,-77
17:16:18.198,,-393,648,-41
17:16:18.208,,-384,548,15
17:16:18.218,,-335,418,74
17:16:18.228,,-306,312,108
17:16:18.238,,-307,227,111
17:16:18.248,,-287,168,93
17:16:18.258,,-277,150,77
17:16:18.268,,-252,115,71
17:16:18.278,,-250,67,75
17:16:18.288,,-317,23,87
17:16:18.298,,-338,-17,75
17:16:18.308,,-305,-50,61
17:16:18.318,,-216,-114,50
17:16:18.328,,-172,-154,50
17:16:18.338,,-141,-211,55
17:16:18.348,,-75,-297,41
17:16:18.358,,-50,-371,22
17:16:18.368,,-47,-435,10
17:16:18.378,,-47,-476,5
17:16:18.388,,-28,-504,24
17:16:18.398,,-26,-512,37
17:16:18.408,,-4,-529,50
17:16:18.418,,39,-574,49
17:16:18.428,,55,-622,79
17:16:18.438,,122,-733,126
17:16:18.448,,274,-1009,113
17:16:18.458,,293,-1129,127
17:16:18.468,,319,-1239,128
17:16:18.478,,324,-1308,108
17:16:18.488,,315,-1337,45
17:16:18.498,,313,-1348,-3
17:16:18.508,,325,-1323,-29
17:16:18.518,,374,-1312,-42
17:16:18.528,,439,-1385,-24
17:16:18.538,,519,-1560,14
17:16:18.548,,632,-1817,80
17:16:18.558,,733,-1989,101
17:16:18.568,,696,-1998,85
17:16:18.578,,697,-1992,106
17:16:18.588,,694,-1998,16
17:16:18.598,,662,-1998,69
17:16:18.608,,717,-1998,72
17:16:18.618,,739,-1998,106
17:16:18.628,,684,-1998,152
17:16:18.638,,656,-1998,160
17:16:18.648,,591,-1991,176
17:16:18.658,,545,-1846,136
17:16:18.668,,496,-1693,189
17:16:18.678,,460,-1546,105
17:16:18.688,,356,-1530,182
17:16:18.698,,408,-1293,265
17:16:18.708,,315,-1232,273
17:16:18.718,,252,-1129,259
17:16:18.728,,230,-1071,233
17:16:18.850,,-263,-331,5
17:16:18.851,,-263,-331,5
17:16:18.853,,-263,-331,5
17:16:18.854,,-263,-331,5
17:16:18.855,,-263,-331,5
17:16:18.857,,-292,-270,-18
17:16:18.858,,-292,-270,-18
17:16:18.859,,-292,-270,-18
17:16:18.861,,-292,-270,-18
17:16:18.862,,-292,-270,-18
17:16:18.864,,-292,-270,-18
17:16:18.865,,-292,-270,-45
17:16:18.866,,-301,-220,-45
17:16:18.868,,-301,-220,-45
17:16:18.878,,-296,-189,-61
17:16:18.888,,-321,-143,-63
17:16:18.898,,-349,-92,-81
17:16:18.908,,-374,-47,-104
17:16:18.918,,-352,-15,-128
17:16:18.928,,-261,16,-143
17:16:18.938,,-194,54,-175
17:16:18.948,,-183,106,-198
17:16:18.958,,-126,235,-215
17:16:18.968,,-110,299,-217
17:16:18.978,,-126,356,-253
17:16:18.988,,-144,417,-291
17:16:18.998,,-104,483,-331
17:16:19.008,,-92,542,-388
17:16:19.018,,-108,634,-458
17:16:19.028,,-86,723,-530
17:16:19.038,,-56,774,-567
17:16:19.048,,33,773,-592
17:16:19.058,,81,766,-543
17:16:19.068,,93,738,-483
17:16:19.078,,101,697,-406
17:16:19.088,,92,739,-389
17:16:19.098,,66,819,-394
17:16:19.108,,62,877,-382
17:16:19.118,,114,916,-369
17:16:19.128,,174,921,-355
17:16:19.138,,188,968,-301
17:16:19.148,,169,1050,-230
17:16:19.158,,137,1122,-179
17:16:19.168,,112,1192,-152
17:16:19.178,,133,1256,-164
17:16:19.188,,193,1335,-260
17:16:19.198,,176,1472,-150
17:16:19.208,,188,1728,-329
17:16:19.218,,217,1803,-385
17:16:19.228,,288,1859,-427
17:16:19.238,,367,1928,-424
17:16:19.248,,435,1981,-457
17:16:19.258,,496,1997,-538
17:16:19.268,,468,1997,-617
17:16:19.278,,502,1997,-753
17:16:19.288,,551,1997,-798
17:16:19.298,,525,1997,-795
17:16:19.308,,507,1997,-745
17:16:19.318,,483,1993,-699
17:16:19.328,,406,1936,-644
17:16:19.338,,297,1856,-554
17:16:19.348,,285,1839,-544
17:16:19.358,,272,1837,-545
17:16:19.368,,260,1830,-564
17:16:19.378,,253,1812,-559
17:16:19.388,,269,1765,-542
17:16:19.398,,242,1710,-511
17:16:19.408,,219,1638,-455
17:16:19.418,,193,1581,-396
17:16:19.428,,166,1508,-342
17:16:19.438,,146,1434,-317
17:16:19.448,,147,1376,-324
17:16:19.458,,134,1341,-341
17:16:19.468,,73,1306,-377
17:16:19.478,,24,1246,-352
17:16:19.488,,17,1147,-320
17:16:19.498,,6,1042,-272
17:16:19.508,,-8,910,-195
17:16:19.518,,-14,782,-108
17:16:19.528,,-54,697,-61
17:16:19.538,,-128,646,-36
17:16:19.548,,-235,646,-15
17:16:19.558,,-295,663,0
17:16:19.568,,-291,646,-23
17:16:19.578,,-266,610,-48
17:16:19.588,,-192,542,-76
17:16:19.598,,-115,412,-124
17:16:19.608,,-66,339,-122
17:16:19.618,,-52,318,-100
17:16:19.628,,-52,283,-84
17:16:19.638,,-70,261,-61
17:16:19.648,,-97,233,-34
17:16:19.658,,-147,200,19
17:16:19.668,,-182,112,93
17:16:19.678,,-199,39,128
17:16:19.688,,-193,-50,107
17:16:19.698,,-110,-161,84
17:16:19.708,,-74,-234,83
17:16:19.718,,-100,-265,94
17:16:19.728,,-28,-398,65
17:16:19.738,,17,-463,101
17:16:19.748,,40,-558,152
17:16:19.758,,49,-667,202
17:16:19.768,,89,-792,233
17:16:19.778,,118,-875,261
17:16:19.788,,141,-993,286
17:16:19.798,,127,-1061,302
17:16:19.808,,156,-1098,212
17:16:19.818,,217,-1123,146
17:16:19.828,,296,-1148,70
17:16:19.838,,373,-1197,29
17:16:19.848,,443,-1280,17
17:16:19.858,,521,-1472,65
17:16:19.868,,528,-1573,85
17:16:19.878,,457,-1602,90
17:16:19.888,,432,-1648,63
17:16:19.898,,465,-1696,32
17:16:19.908,,454,-1737,1
17:16:19.918,,434,-1763,-18
17:16:19.928,,450,-1781,-4
17:16:19.938,,485,-1824,40
17:16:19.948,,522,-1791,25
17:16:19.958,,462,-1992,80
17:16:19.968,,485,-1998,97
17:16:19.978,,478,-1998,162
17:16:19.988,,407,-1998,153
17:16:19.998,,378,-1974,148
17:16:20.008,,323,-1953,146
17:16:20.018,,285,-1824,176
17:16:20.028,,262,-1621,182
17:16:20.038,,241,-1573,94
17:16:20.048,,219,-1402,156
17:16:20.058,,148,-1304,173
17:16:20.068,,46,-1281,160
17:16:20.078,,-29,-1313,211
17:16:20.088,,14,-1173,229
17:16:20.098,,-18,-1162,217
17:16:20.108,,-34,-960,97
17:16:20.118,,-101,-872,88
17:16:20.128,,-103,-768,64
17:16:20.138,,-98,-693,20
17:16:20.148,,-108,-635,-21
17:16:20.158,,-131,-648,-64
17:16:20.168,,-184,-639,-49
17:16:20.178,,-221,-609,-7
17:16:20.188,,-190,-587,5
17:16:20.198,,-147,-583,-35
17:16:20.208,,-131,-535,-97
17:16:20.218,,-153,-462,-160
17:16:20.228,,-164,-392,-232
17:16:20.345,,-121,202,-333
17:16:20.346,,-121,202,-333
17:16:20.348,,-121,202,-333
17:16:20.349,,-121,202,-377
17:16:20.350,,-93,284,-377
17:16:20.352,,-93,284,-377
17:16:20.353,,-93,284,-377
17:16:20.354,,-93,284,-377
17:16:20.356,,-93,284,-377
17:16:20.357,,-93,284,-377
17:16:20.359,,-122,337,-414
17:16:20.360,,-122,337,-414
17:16:20.361,,-122,337,-414
17:16:20.368,,-151,392,-423
17:16:20.378,,-120,461,-410
17:16:20.388,,-38,549,-373
17:16:20.398,,-18,620,-319
17:16:20.408,,-26,685,-257
17:16:20.418,,-42,752,-237
17:16:20.428,,-87,844,-194
17:16:20.438,,-150,925,-192
17:16:20.448,,-193,981,-217
17:16:20.458,,-216,1028,-266
17:16:20.468,,-275,1087,-227
17:16:20.478,,-342,1101,-198
17:16:20.488,,-361,1065,-146
17:16:20.498,,-143,1067,-87
17:16:20.508,,-27,1065,-102
17:16:20.518,,67,1093,-148
17:16:20.528,,159,1137,-216
17:16:20.538,,190,1178,-270
17:16:20.548,,216,1182,-347
17:16:20.558,,215,1215,-398
17:16:20.568,,196,1303,-334
17:16:20.578,,233,1422,-286
17:16:20.588,,240,1501,-256
17:16:20.598,,203,1566,-225
17:16:20.608,,221,1683,-182
17:16:20.618,,236,1758,-204
17:16:20.628,,209,1840,-216
17:16:20.638,,179,1977,-307
17:16:20.648,,165,1997,-420
17:16:20.658,,164,1997,-525
17:16:20.668,,183,1997,-615
17:16:20.678,,212,1997,-621
17:16:20.688,,271,1997,-640
17:16:20.698,,237,1996,-612
17:16:20.708,,249,1979,-586
17:16:20.718,,200,1949,-526
17:16:20.728,,153,1892,-502
17:16:20.738,,98,1861,-466
17:16:20.748,,7,1865,-401
17:16:20.758,,-8,1857,-410
17:16:20.768,,-22,1837,-412
17:16:20.778,,-11,1798,-404
17:16:20.788,,15,1759,-413
17:16:20.798,,36,1725,-375
17:16:20.808,,20,1679,-319
17:16:20.818,,-38,1673,-292
17:16:20.828,,-145,1696,-256
17:16:20.838,,-210,1682,-266
17:16:20.848,,-230,1651,-290
17:16:20.858,,-133,1580,-309
17:16:20.868,,-1,1451,-319
17:16:20.878,,108,1176,-233
17:16:20.888,,252,989,-176
17:16:20.898,,252,805,-123
17:16:20.908,,65,703,-28
17:16:20.918,,-76,630,-30
17:16:20.928,,-106,571,-84
17:16:20.938,,-82,523,-146
17:16:20.948,,-81,444,-189
17:16:20.958,,-82,358,-168
17:16:20.968,,-112,280,-138
17:16:20.978,,-126,182,-128
17:16:20.988,,-58,87,-96
17:16:20.998,,9,-6,-90
17:16:21.008,,22,-134,-48
17:16:21.018,,-41,-171,-29
17:16:21.028,,-52,-218,-21
17:16:21.038,,-43,-265,-29
17:16:21.048,,19,-321,-55
17:16:21.058,,55,-345,-62
17:16:21.068,,10,-340,-39
17:16:21.078,,-10,-366,-36
17:16:21.088,,-8,-383,-37
17:16:21.098,,-7,-399,-12
17:16:21.108,,-10,-416,13
17:16:21.118,,-30,-458,38
17:16:21.128,,-33,-500,72
17:16:21.138,,54,-652,129
17:16:21.148,,142,-763,132
17:16:21.158,,220,-859,145
17:16:21.168,,254,-947,152
17:16:21.178,,291,-1052,158
17:16:21.188,,307,-1176,187
17:16:21.198,,312,-1293,209
17:16:21.208,,326,-1382,229
17:16:21.218,,335,-1452,224
17:16:21.228,,333,-1509,216
17:16:21.238,,329,-1557,222
17:16:21.248,,324,-1602,219
17:16:21.258,,347,-1644,176
17:16:21.268,,323,-1794,241
17:16:21.278,,367,-1864,261
17:16:21.288,,351,-1977,193
17:16:21.298,,329,-1968,235
17:16:21.308,,279,-1996,235
17:16:21.318,,244,-1998,278
17:16:21.328,,294,-1990,303
17:16:21.338,,249,-1917,319
17:16:21.348,,178,-1960,260
17:16:21.358,,229,-1855,337
17:16:21.368,,194,-1719,284
17:16:21.378,,147,-1715,256
17:16:21.388,,74,-1625,297
17:16:21.398,,41,-1565,275
17:16:21.408,,28,-1376,297
17:16:21.418,,-67,-1319,298
17:16:21.428,,-190,-1303,358
17:16:21.438,,-174,-1226,406
17:16:21.448,,-144,-1141,398
17:16:21.458,,-197,-1095,362
17:16:21.468,,-225,-1063,333
17:16:21.478,,-190,-1025,292
17:16:21.488,,-206,-1019,252
17:16:21.498,,-221,-1019,247
17:16:21.508,,-233,-975,257
17:16:21.518,,-285,-879,279
17:16:21.528,,-284,-808,267
17:16:21.538,,-255,-704,248
17:16:21.548,,-210,-643,174
17:16:21.558,,-202,-592,108
17:16:21.568,,-161,-571,55
17:16:21.578,,-135,-553,-24
17:16:21.588,,-109,-522,-74
17:16:21.598,,-89,-475,-105
17:16:21.608,,-60,-426,-99
17:16:21.618,,-41,-417,-72
17:16:21.628,,-40,-384,-126
17:16:21.638,,-40,-286,-174
17:16:21.648,,-39,-17,-285
17:16:21.658,,-39,81,-355
17:16:21.668,,27,116,-412
17:16:21.678,,105,132,-466
17:16:21.688,,123,180,-522
17:16:21.698,,123,249,-615
17:16:21.708,,167,350,-674
17:16:21.718,,183,484,-749
17:16:21.847,,-162,370,-412
17:16:21.849,,-162,370,-412
17:16:21.850,,-162,370,-412
17:16:21.852,,-162,370,-352
17:16:21.853,,-129,461,-352
17:16:21.854,,-129,461,-352
17:16:21.856,,-129,461,-352
17:16:21.857,,-129,461,-352
17:16:21.858,,-129,461,-352
17:16:21.860,,-129,461,-352
17:16:21.861,,-143,587,-280
17:16:21.862,,-143,587,-280
17:16:21.864,,-143,587,-280
17:16:21.865,,-143,587,-280
17:16:21.868,,-143,587,-280
17:16:21.878,,-237,801,-255
17:16:21.888,,-295,1000,-183
17:16:21.898,,-250,1034,-90
17:16:21.908,,-392,1126,-31
17:16:21.918,,-321,1092,-10
17:16:21.928,,-263,1070,-15
17:16:21.938,,-205,1095,-32
17:16:21.948,,-152,1172,-72
17:16:21.958,,-154,1319,-95
17:16:21.968,,-149,1445,-147
17:16:21.978,,-101,1515,-150
17:16:21.988,,-35,1612,-150
17:16:21.998,,81,1762,-218
17:16:22.008,,132,1925,-330
17:16:22.018,,143,1996,-471
17:16:22.028,,143,1997,-624
17:16:22.038,,64,1997,-652
17:16:22.048,,24,1997,-679
17:16:22.058,,11,1997,-708
17:16:22.068,,17,1997,-720
17:16:22.078,,31,1997,-702
17:16:22.088,,54,1988,-689
17:16:22.098,,48,1874,-651
17:16:22.108,,46,1749,-633
17:16:22.118,,49,1649,-627
17:16:22.128,,-6,1592,-625
17:16:22.138,,-52,1573,-606
17:16:22.148,,-84,1569,-583
17:16:22.158,,-163,1508,-531
17:16:22.168,,-180,1457,-482
17:16:22.178,,-154,1406,-451
17:16:22.188,,-114,1386,-416
17:16:22.198,,-124,1360,-388
17:16:22.208,,-98,1302,-411
17:16:22.218,,-103,1239,-414
17:16:22.228,,-129,1185,-422
17:16:22.238,,-141,1119,-417
17:16:22.248,,-145,1018,-383
17:16:22.258,,-124,872,-332
17:16:22.268,,-124,739,-261
17:16:22.278,,-151,641,-191
17:16:22.288,,-179,487,-137
17:16:22.298,,-187,437,-150
17:16:22.308,,-227,424,-188
17:16:22.318,,-327,453,-196
17:16:22.328,,-400,457,-196
17:16:22.338,,-420,391,-175
17:16:22.348,,-419,308,-151
17:16:22.358,,-286,220,-140
17:16:22.368,,-256,126,-77
17:16:22.378,,-303,30,-37
17:16:22.388,,-272,-42,-47
17:16:22.398,,-226,-102,-86
17:16:22.408,,-198,-153,-111
17:16:22.418,,-198,-241,-72
17:16:22.428,,-216,-294,-46
17:16:22.438,,-206,-353,-54
17:16:22.448,,-174,-397,-82
17:16:22.458,,-125,-424,-116
17:16:22.468,,-29,-455,-154
17:16:22.478,,30,-481,-179
17:16:22.488,,61,-508,-218
17:16:22.498,,94,-538,-253
17:16:22.508,,92,-568,-225
17:16:22.518,,82,-624,-193
17:16:22.528,,78,-680,-147
17:16:22.538,,101,-758,-95
17:16:22.548,,132,-925,-16
17:16:22.558,,146,-986,-11
17:16:22.568,,156,-1034,-16
17:16:22.578,,172,-1102,-16
17:16:22.588,,205,-1168,-47
17:16:22.598,,246,-1227,-67
17:16:22.608,,274,-1275,-76
17:16:22.618,,297,-1346,-98
17:16:22.628,,310,-1402,-115
17:16:22.638,,267,-1505,-106
17:16:22.648,,290,-1577,-123
17:16:22.658,,316,-1687,-123
17:16:22.668,,317,-1827,-99
17:16:22.678,,385,-1998,-102
17:16:22.688,,434,-1998,-123
17:16:22.698,,477,-1998,-154
17:16:22.708,,531,-1928,-180
17:16:22.718,,461,-1998,-282
17:16:22.728,,398,-1998,-238
17:16:22.738,,457,-1993,-211
17:16:22.748,,483,-1964,-174
17:16:22.758,,435,-1991,-124
17:16:22.768,,393,-1892,-82
17:16:22.778,,258,-1725,-42
17:16:22.788,,104,-1731,-21
17:16:22.798,,117,-1385,77
17:16:22.808,,69,-1278,64
17:16:22.818,,-67,-1246,82
17:16:22.828,,-114,-1153,125
17:16:22.838,,-117,-1002,149
17:16:22.848,,-162,-868,154
17:16:22.858,,-229,-799,156
17:16:22.868,,-277,-754,143
17:16:22.878,,-284,-722,163
17:16:22.888,,-343,-658,207
17:16:22.898,,-376,-581,224
17:16:22.908,,-369,-506,183
17:16:22.918,,-364,-407,128
17:16:22.928,,-396,-240,75
17:16:22.938,,-399,-192,51
17:16:22.948,,-373,-187,26
17:16:22.958,,-314,-204,6
17:16:22.968,,-289,-174,12
17:16:22.978,,-301,-110,4
17:16:22.988,,-298,-15,-68
17:16:22.998,,-235,92,-199
17:16:23.008,,-164,220,-319
17:16:23.018,,-114,331,-435
17:16:23.028,,-78,401,-504
17:16:23.038,,-89,426,-536
17:16:23.048,,-123,435,-555
17:16:23.058,,-149,404,-494
17:16:23.068,,-176,368,-415
17:16:23.078,,-168,370,-363
17:16:23.088,,-142,381,-315
17:16:23.098,,-106,391,-299
17:16:23.108,,-57,403,-299
17:16:23.118,,-17,420,-308
17:16:23.128,,9,422,-309
17:16:23.138,,16,446,-324
17:16:23.148,,20,491,-343
17:16:23.158,,11,564,-347
17:16:23.168,,27,650,-346
17:16:23.178,,69,726,-330
17:16:23.188,,73,878,-319
17:16:23.314,,513,1799,-444
17:16:23.316,,513,1799,-444
17:16:23.317,,513,1799,-444
17:16:23.318,,564,1866,-515
17:16:23.320,,564,1866,-515
17:16:23.321,,564,1866,-515
17:16:23.322,,564,1866,-515
17:16:23.324,,564,1866,-515
17:16:23.325,,564,1866,-515
17:16:23.327,,564,1905,-568
17:16:23.328,,604,1905,-568
17:16:23.329,,604,1905,-568
17:16:23.331,,604,1905,-568
17:16:23.332,,604,1905,-568
17:16:23.338,,645,1970,-594
17:16:23.348,,687,1997,-613
17:16:23.358,,684,1997,-613
17:16:23.368,,695,1997,-591
17:16:23.378,,686,1984,-590
17:16:23.388,,691,1963,-631
17:16:23.398,,684,1948,-672
17:16:23.408,,681,1949,-714
17:16:23.418,,652,1947,-729
17:16:23.428,,582,1937,-714
17:16:23.438,,519,1917,-627
17:16:23.448,,474,1823,-556
17:16:23.458,,443,1758,-491
17:16:23.468,,422,1710,-448
17:16:23.478,,402,1685,-429
17:16:23.488,,355,1691,-401
17:16:23.498,,309,1682,-393
17:16:23.508,,278,1658,-392
17:16:23.518,,285,1606,-389
17:16:23.528,,315,1525,-384
17:16:23.538,,263,1389,-348
17:16:23.548,,249,1232,-307
17:16:23.558,,221,1096,-264
17:16:23.568,,120,880,-196
17:16:23.578,,56,791,-163
17:16:23.588,,-10,702,-119
17:16:23.598,,-76,603,-89
17:16:23.608,,-121,503,-53
17:16:23.618,,-180,448,-19
17:16:23.628,,-217,376,0
17:16:23.638,,-239,286,4
17:16:23.648,,-256,215,-17
17:16:23.658,,-274,170,-38
17:16:23.668,,-283,130,-48
17:16:23.678,,-262,75,-67
17:16:23.688,,-243,37,-81
17:16:23.698,,-171,-77,-87
17:16:23.708,,-158,-156,-84
17:16:23.718,,-178,-235,-81
17:16:23.728,,-190,-298,-116
17:16:23.738,,-175,-329,-161
17:16:23.748,,-151,-332,-186
17:16:23.758,,-123,-342,-223
17:16:23.768,,-142,-335,-233
17:16:23.778,,-185,-332,-233
17:16:23.788,,-144,-371,-234
17:16:23.798,,-92,-449,-203
17:16:23.808,,-19,-508,-211
17:16:23.818,,0,-585,-215
17:16:23.828,,-53,-615,-203
17:16:23.838,,-75,-614,-189
17:16:23.848,,-98,-625,-174
17:16:23.858,,-96,-644,-162
17:16:23.868,,-104,-665,-142
17:16:23.878,,-138,-669,-98
17:16:23.888,,-113,-731,-53
17:16:23.898,,-35,-812,-37
17:16:23.908,,43,-907,14
17:16:23.918,,111,-1051,48
17:16:23.928,,148,-1173,25
17:16:23.938,,129,-1249,-15
17:16:23.948,,137,-1240,-18
17:16:23.958,,199,-1331,19
17:16:23.968,,226,-1462,49
17:16:23.978,,213,-1478,40
17:16:23.988,,221,-1644,77
17:16:23.998,,263,-1793,144
17:16:24.008,,275,-1920,207
17:16:24.018,,287,-1998,210
17:16:24.028,,261,-1998,202
17:16:24.038,,217,-1998,157
17:16:24.048,,239,-1998,165
17:16:24.058,,215,-1998,117
17:16:24.068,,244,-1998,173
17:16:24.078,,243,-1998,165
17:16:24.088,,180,-1974,175
17:16:24.098,,124,-1874,201
17:16:24.108,,103,-1732,228
17:16:24.118,,63,-1656,232
17:16:24.128,,63,-1552,252
17:16:24.138,,55,-1463,278
17:16:24.148,,15,-1371,301
17:16:24.158,,-63,-1297,294
17:16:24.168,,-113,-1200,298
17:16:24.178,,-125,-1123,279
17:16:24.188,,-127,-1037,273
17:16:24.198,,-120,-957,235
17:16:24.208,,-131,-822,196
17:16:24.218,,-117,-748,175
17:16:24.228,,-146,-703,182
17:16:24.238,,-199,-627,208
17:16:24.248,,-218,-510,160
17:16:24.258,,-250,-387,108
17:16:24.268,,-257,-286,49
17:16:24.278,,-247,-217,-18
17:16:24.288,,-236,-175,-48
17:16:24.298,,-215,-154,-83
17:16:24.308,,-176,-148,-111
17:16:24.318,,-114,-115,-136
17:16:24.328,,-75,-67,-178
17:16:24.338,,-52,4,-279
17:16:24.348,,-12,40,-318
17:16:24.358,,83,109,-367
17:16:24.368,,147,193,-396
17:16:24.378,,167,268,-414
17:16:24.388,,155,337,-434
17:16:24.398,,134,428,-478
17:16:24.408,,112,495,-538
17:16:24.418,,99,555,-607
17:16:24.428,,92,617,-632
17:16:24.438,,63,654,-636
17:16:24.448,,56,657,-636
17:16:24.458,,90,655,-627
17:16:24.468,,135,701,-526
17:16:24.478,,153,714,-484
17:16:24.488,,175,752,-434
17:16:24.498,,182,790,-411
17:16:24.508,,228,835,-396
17:16:24.518,,247,893,-371
17:16:24.528,,266,936,-359
17:16:24.538,,301,939,-333
17:16:24.548,,367,978,-338
17:16:24.558,,366,1043,-270
17:16:24.568,,402,1117,-268
17:16:24.578,,489,1178,-257
17:16:24.588,,533,1259,-258
17:16:24.598,,565,1415,-356
17:16:24.608,,656,1489,-395
17:16:24.618,,723,1549,-408
17:16:24.628,,793,1586,-427
17:16:24.638,,875,1633,-473
17:16:24.648,,891,1715,-552
17:16:24.658,,890,1805,-642
17:16:24.668,,927,1838,-719
17:16:24.678,,928,1862,-761
17:16:24.799,,650,1576,-634
17:16:24.800,,650,1576,-634
17:16:24.802,,638,1547,-617
17:16:24.803,,638,1547,-617
17:16:24.804,,638,1547,-617
17:16:24.806,,638,1547,-617
17:16:24.807,,638,1547,-617
17:16:24.808,,638,1547,-617
17:16:24.810,,638,1547,-617
17:16:24.811,,631,1508,-591
17:16:24.812,,631,1508,-591
17:16:24.814,,631,1508,-591
17:16:24.815,,631,1508,-591
17:16:24.818,,631,1508,-591
17:16:24.828,,624,1469,-554
17:16:24.838,,608,1437,-523
17:16:24.848,,581,1407,-448
17:16:24.858,,507,1366,-427
17:16:24.868,,439,1326,-409
17:16:24.878,,384,1261,-394
17:16:24.888,,346,1178,-378
17:16:24.898,,310,1084,-348
17:16:24.908,,279,975,-312
17:16:24.918,,252,858,-282
17:16:24.928,,216,736,-250
17:16:24.938,,163,643,-225
17:16:24.948,,113,570,-212
17:16:24.958,,56,507,-213
17:16:24.968,,7,455,-229
17:16:24.978,,-74,350,-276
17:16:24.988,,-95,293,-295
17:16:24.998,,-126,232,-304
17:16:25.008,,-161,174,-279
17:16:25.018,,-165,121,-253
17:16:25.028,,-175,77,-222
17:16:25.038,,-199,34,-179
17:16:25.048,,-211,-14,-161
17:16:25.058,,-229,-57,-131
17:16:25.068,,-258,-92,-87
17:16:25.078,,-277,-134,-44
17:16:25.088,,-284,-167,-5
17:16:25.098,,-306,-198,19
17:16:25.108,,-339,-242,41
17:16:25.118,,-381,-231,42
17:16:25.128,,-396,-241,33
17:16:25.138,,-376,-273,29
17:16:25.148,,-322,-347,35
17:16:25.158,,-290,-440,31
17:16:25.168,,-272,-535,32
17:16:25.178,,-214,-611,35
17:16:25.188,,-151,-676,9
17:16:25.198,,-151,-688,9
17:16:25.208,,-160,-680,-52
17:16:25.218,,-213,-639,-70
17:16:25.228,,-206,-604,-92
17:16:25.238,,-60,-701,-97
17:16:25.248,,14,-808,-71
17:16:25.258,,87,-969,-48
17:16:25.268,,161,-1144,-27
17:16:25.278,,203,-1307,4
17:16:25.288,,190,-1444,26
17:16:25.298,,183,-1537,26
17:16:25.308,,184,-1639,23
17:16:25.318,,206,-1727,30
17:16:25.328,,231,-1828,96
17:16:25.338,,284,-1970,111
17:16:25.348,,303,-1998,142
17:16:25.358,,286,-1998,136
17:16:25.368,,284,-1998,79
17:16:25.378,,289,-1998,78
17:16:25.388,,288,-1998,11
17:16:25.398,,307,-1998,13
17:16:25.408,,296,-1996,-42
17:16:25.418,,184,-1998,-21
17:16:25.428,,283,-1998,83
17:16:25.438,,274,-1910,146
17:16:25.448,,107,-1706,164
17:16:25.458,,-47,-1655,146
17:16:25.468,,-51,-1529,210
17:16:25.478,,0,-1342,259
17:16:25.488,,-12,-1190,294
17:16:25.498,,-54,-963,273
17:16:25.508,,-52,-860,267
17:16:25.518,,-58,-773,233
17:16:25.528,,-128,-708,220
17:16:25.538,,-152,-625,220
17:16:25.548,,-135,-556,181
17:16:25.558,,-166,-507,170
17:16:25.568,,-173,-444,132
17:16:25.578,,-164,-362,101
17:16:25.588,,-111,-282,68
17:16:25.598,,-77,-238,34
17:16:25.608,,-98,-187,13
17:16:25.618,,-127,24,-42
17:16:25.628,,-120,96,-101
17:16:25.638,,-57,165,-163
17:16:25.648,,-19,234,-226
17:16:25.658,,-5,275,-294
17:16:25.668,,10,352,-327
17:16:25.678,,38,398,-366
17:16:25.688,,62,452,-408
17:16:25.698,,64,516,-472
17:16:25.708,,62,604,-516
17:16:25.718,,57,701,-558
17:16:25.728,,57,775,-612
17:16:25.738,,32,824,-667
17:16:25.748,,7,867,-706
17:16:25.758,,57,848,-662
17:16:25.768,,85,798,-565
17:16:25.778,,62,752,-499
17:16:25.788,,98,730,-467
17:16:25.798,,148,760,-452
17:16:25.808,,195,792,-424
17:16:25.818,,237,808,-439
17:16:25.828,,251,855,-462
17:16:25.838,,283,931,-467
17:16:25.848,,357,1000,-474
17:16:25.858,,397,1033,-473
17:16:25.868,,480,1051,-344
17:16:25.878,,625,1142,-337
17:16:25.888,,671,1269,-416
17:16:25.898,,675,1396,-489
17:16:25.908,,677,1480,-533
17:16:25.918,,607,1557,-537
17:16:25.928,,573,1663,-571
17:16:25.938,,602,1820,-661
17:16:25.948,,647,1952,-754
17:16:25.958,,700,1997,-834
17:16:25.968,,725,1997,-884
17:16:25.978,,706,1995,-905
17:16:25.988,,689,1940,-905
17:16:25.998,,627,1849,-874
17:16:26.007,,604,1721,-769
17:16:26.018,,578,1692,-752
17:16:26.027,,558,1683,-767
17:16:26.037,,545,1686,-804
17:16:26.047,,544,1676,-844
17:16:26.057,,515,1661,-862
17:16:26.067,,447,1646,-838
17:16:26.077,,387,1600,-783
17:16:26.087,,335,1515,-716
17:16:26.097,,271,1428,-641
17:16:26.107,,196,1355,-557
17:16:26.117,,164,1289,-490
17:16:26.127,,173,1218,-433
17:16:26.137,,183,1112,-453
17:16:26.147,,158,1086,-486
17:16:26.157,,133,1074,-517
17:16:26.167,,77,1055,-515
17:16:26.284,,-224,337,-141
17:16:26.285,,-224,337,-146
17:16:26.287,,-229,289,-146
17:16:26.288,,-229,289,-146
17:16:26.289,,-229,289,-146
17:16:26.291,,-229,289,-146
17:16:26.292,,-229,289,-146
17:16:26.293,,-229,289,-146
17:16:26.295,,-182,235,-161
17:16:26.296,,-182,235,-161
17:16:26.298,,-182,235,-161
17:16:26.299,,-182,235,-161
17:16:26.300,,-182,235,-161
17:16:26.307,,-153,177,-186
17:16:26.317,,-140,110,-180
17:16:26.327,,-109,54,-185
17:16:26.337,,-109,9,-160
17:16:26.347,,-104,-36,-153
17:16:26.357,,-63,-105,-157
17:16:26.367,,-12,-163,-154
17:16:26.377,,21,-223,-134
17:16:26.387,,84,-401,-89
17:16:26.397,,64,-477,-75
17:16:26.407,,48,-529,-60
17:16:26.417,,48,-571,-43
17:16:26.427,,48,-649,-37
17:16:26.437,,37,-691,-8
17:16:26.447,,29,-704,-8
17:16:26.457,,32,-700,18
17:16:26.467,,103,-756,-15
17:16:26.477,,173,-860,-17
17:16:26.487,,195,-942,-11
17:16:26.497,,208,-1049,1
17:16:26.507,,224,-1144,24
17:16:26.517,,254,-1288,39
17:16:26.527,,199,-1353,82
17:16:26.537,,174,-1392,131
17:16:26.547,,222,-1500,187
17:16:26.557,,271,-1678,223
17:16:26.567,,271,-1862,216
17:16:26.577,,279,-1919,235
17:16:26.587,,286,-1995,211
17:16:26.597,,217,-1998,164
17:16:26.607,,272,-1998,159
17:16:26.617,,322,-1998,113
17:16:26.627,,294,-1998,148
17:16:26.637,,320,-1998,191
17:16:26.647,,266,-1998,195
17:16:26.657,,218,-1998,191
17:16:26.667,,224,-1996,182
17:16:26.677,,175,-1935,196
17:16:26.687,,86,-1774,191
17:16:26.697,,79,-1641,188
17:16:26.707,,73,-1519,215
17:16:26.717,,57,-1438,227
17:16:26.727,,45,-1397,235
17:16:26.737,,37,-1359,263
17:16:26.747,,15,-1321,276
17:16:26.757,,10,-1239,276
17:16:26.767,,7,-1162,271
17:16:26.777,,-38,-915,295
17:16:26.787,,-121,-759,318
17:16:26.797,,-227,-667,315
17:16:26.807,,-247,-542,293
17:16:26.817,,-265,-504,248
17:16:26.827,,-293,-463,260
17:16:26.837,,-276,-417,256
17:16:26.847,,-233,-367,234
17:16:26.857,,-218,-334,185
17:16:26.867,,-275,-319,123
17:16:26.877,,-250,-279,51
17:16:26.887,,-178,-199,-29
17:16:26.897,,-160,-95,-155
17:16:26.907,,-123,79,-179
17:16:26.917,,-127,137,-228
17:16:26.927,,-130,171,-303
17:16:26.937,,-110,194,-365
17:16:26.947,,-72,189,-404
17:16:26.957,,-21,184,-459
17:16:26.967,,26,196,-461
17:16:26.977,,97,220,-456
17:16:26.987,,171,241,-416
17:16:26.997,,190,270,-385
17:16:27.007,,149,342,-383
17:16:27.017,,118,461,-380
17:16:27.027,,96,716,-482
17:16:27.037,,73,828,-544
17:16:27.047,,34,893,-589
17:16:27.057,,55,919,-604
17:16:27.067,,105,912,-594
17:16:27.077,,132,931,-536
17:16:27.087,,188,962,-489
17:16:27.097,,254,992,-420
17:16:27.107,,270,1023,-327
17:16:27.117,,299,1025,-241
17:16:27.127,,288,1080,-202
17:16:27.137,,246,1189,-211
17:16:27.147,,239,1286,-205
17:16:27.157,,294,1506,-136
17:16:27.167,,370,1605,-212
17:16:27.177,,462,1670,-218
17:16:27.187,,457,1748,-251
17:16:27.197,,440,1816,-325
17:16:27.207,,450,1865,-324
17:16:27.217,,482,1900,-310
17:16:27.227,,475,1924,-322
17:16:27.237,,456,1968,-360
17:16:27.247,,465,1995,-431
17:16:27.257,,489,1997,-511
17:16:27.267,,492,1996,-563
17:16:27.277,,488,1949,-568
17:16:27.287,,445,1779,-525
17:16:27.297,,378,1729,-514
17:16:27.307,,328,1705,-526
17:16:27.317,,291,1687,-529
17:16:27.327,,282,1663,-515
17:16:27.337,,310,1641,-494
17:16:27.347,,355,1624,-453
17:16:27.357,,363,1601,-449
17:16:27.367,,349,1584,-458
17:16:27.377,,282,1576,-450
17:16:27.387,,211,1547,-446
17:16:27.397,,164,1490,-433
17:16:27.407,,130,1425,-407
17:16:27.417,,92,1269,-357
17:16:27.427,,71,1180,-313
17:16:27.437,,41,1087,-279
17:16:27.447,,-11,1024,-232
17:16:27.457,,-65,976,-184
17:16:27.467,,-125,937,-150
17:16:27.477,,-179,916,-122
17:16:27.487,,-199,901,-90
17:16:27.497,,-248,886,-59
17:16:27.507,,-298,838,-17
17:16:27.517,,-304,730,5
17:16:27.527,,-306,613,18
17:16:27.537,,-321,497,45
17:16:27.547,,-311,296,51
17:16:27.557,,-320,249,39
17:16:27.567,,-314,229,17
17:16:27.577,,-312,232,14
17:16:27.587,,-319,224,7
17:16:27.597,,-337,206,-15
17:16:27.607,,-365,179,-28
17:16:27.617,,-336,136,-39
17:16:27.627,,-243,89,-42
17:16:27.637,,-188,38,-44
17:16:27.647,,-161,-9,-46
17:16:27.657,,-105,-85,-31
17:16:27.667,,0,-202,-16
17:16:27.788,,135,-1190,-11
17:16:27.790,,135,-1190,-11
17:16:27.791,,135,-1190,-11
17:16:27.792,,135,-1190,-11
17:16:27.794,,135,-1190,-11
17:16:27.795,,135,-1190,-11
17:16:27.796,,135,-1190,-11
17:16:27.798,,112,-1131,-6
17:16:27.799,,112,-1131,-6
17:16:27.801,,112,-1131,-6
17:16:27.802,,112,-1131,-6
17:16:27.803,,112,-1131,-6
17:16:27.805,,112,-1131,-6
17:16:27.807,,86,-1098,25
17:16:27.817,,84,-1120,71
17:16:27.827,,137,-1200,120
17:16:27.837,,215,-1347,67
17:16:27.847,,207,-1535,115
17:16:27.857,,243,-1625,99
17:16:27.867,,212,-1943,132
17:16:27.877,,320,-1889,82
17:16:27.887,,275,-1998,133
17:16:27.897,,319,-1986,182
17:16:27.907,,263,-1995,72
17:16:27.917,,224,-1998,127
17:16:27.927,,252,-1998,153
17:16:27.937,,138,-1998,177
17:16:27.947,,106,-1998,204
17:16:27.957,,139,-1998,237
17:16:27.967,,118,-1998,229
17:16:27.977,,82,-1921,224
17:16:27.987,,66,-1779,242
17:16:27.997,,50,-1641,275
17:16:28.007,,44,-1539,282
17:16:28.017,,14,-1443,285
17:16:28.027,,6,-1318,293
17:16:28.037,,-10,-1186,301
17:16:28.047,,-56,-1059,312
17:16:28.057,,-136,-785,316
17:16:28.067,,-209,-700,316
17:16:28.077,,-277,-630,303
17:16:28.087,,-284,-575,280
17:16:28.097,,-288,-521,243
17:16:28.107,,-285,-440,217
17:16:28.117,,-280,-357,171
17:16:28.127,,-283,-272,132
17:16:28.137,,-275,-206,85
17:16:28.147,,-243,-145,33
17:16:28.157,,-240,-113,7
17:16:28.167,,-255,-102,-19
17:16:28.177,,-235,-59,-47
17:16:28.187,,-170,-21,-118
17:16:28.197,,-117,-22,-144
17:16:28.207,,-125,5,-166
17:16:28.217,,-142,63,-188
17:16:28.227,,-118,122,-204
17:16:28.237,,-61,173,-227
17:16:28.247,,44,202,-241
17:16:28.257,,103,273,-242
17:16:28.267,,114,362,-261
17:16:28.277,,140,441,-320
17:16:28.287,,159,562,-374
17:16:28.297,,119,699,-415
17:16:28.307,,41,789,-581
17:16:28.317,,81,860,-620
17:16:28.327,,150,852,-641
17:16:28.337,,232,810,-621
17:16:28.347,,367,744,-611
17:16:28.357,,456,729,-635
17:16:28.367,,542,715,-682
17:16:28.377,,624,722,-654
17:16:28.387,,604,742,-603
17:16:28.397,,555,763,-545
17:16:28.407,,512,803,-495
17:16:28.417,,420,879,-416
17:16:28.427,,368,955,-434
17:16:28.437,,398,1095,-373
17:16:28.447,,641,1185,-392
17:16:28.457,,622,1271,-341
17:16:28.467,,626,1418,-343
17:16:28.477,,698,1559,-366
17:16:28.487,,662,1678,-456
17:16:28.497,,696,1770,-550
17:16:28.507,,771,1860,-635
17:16:28.517,,894,1897,-708
17:16:28.527,,1013,1874,-724
17:16:28.537,,1057,1809,-697
17:16:28.547,,1110,1747,-666
17:16:28.557,,1168,1686,-624
17:16:28.567,,1246,1635,-746
17:16:28.577,,1237,1635,-838
17:16:28.587,,1214,1686,-922
17:16:28.597,,1179,1714,-933
17:16:28.607,,1129,1676,-894
17:16:28.617,,1046,1604,-801
17:16:28.627,,1000,1520,-720
17:16:28.637,,968,1482,-673
17:16:28.647,,922,1475,-630
17:16:28.657,,884,1439,-593
17:16:28.667,,848,1398,-558
17:16:28.677,,790,1372,-530
17:16:28.687,,718,1340,-510
17:16:28.697,,581,1257,-483
17:16:28.707,,530,1191,-457
17:16:28.717,,483,1112,-438
17:16:28.727,,415,1026,-399
17:16:28.737,,374,938,-356
17:16:28.747,,347,881,-318
17:16:28.757,,264,822,-257
17:16:28.767,,200,753,-215
17:16:28.777,,123,681,-159
17:16:28.787,,22,599,-110
17:16:28.797,,-61,534,-96
17:16:28.807,,-101,485,-93
17:16:28.817,,-106,442,-97
17:16:28.827,,-168,364,-129
17:16:28.837,,-174,312,-142
17:16:28.847,,-184,267,-146
17:16:28.857,,-174,230,-147
17:16:28.867,,-170,193,-136
17:16:28.877,,-178,131,-108
17:16:28.887,,-182,74,-92
17:16:28.897,,-161,16,-64
17:16:28.907,,-100,-61,-39
17:16:28.917,,-76,-145,-23
17:16:28.927,,-77,-233,-16
17:16:28.937,,-60,-323,-5
17:16:28.947,,-77,-391,-11
17:16:28.957,,-125,-491,-24
17:16:28.967,,-138,-498,-53
17:16:28.977,,-132,-465,-72
17:16:28.987,,-118,-423,-81
17:16:28.997,,-112,-401,-86
17:16:29.007,,-92,-377,-62
17:16:29.017,,-22,-454,-4
17:16:29.027,,107,-597,17
17:16:29.037,,186,-786,52
17:16:29.047,,164,-947,102
17:16:29.057,,167,-1051,128
17:16:29.067,,129,-1107,132
17:16:29.077,,56,-1124,104
17:16:29.087,,78,-1124,140
17:16:29.097,,142,-1210,171
17:16:29.107,,211,-1349,184
17:16:29.117,,251,-1499,235
17:16:29.127,,265,-1704,230
17:16:29.137,,203,-1919,294
17:16:29.147,,283,-1943,209
17:16:29.157,,226,-1998,227
17:16:29.274,,-31,-1541,323
17:16:29.275,,-31,-1541,323
17:16:29.277,,-31,-1541,323
17:16:29.278,,-31,-1541,323
17:16:29.279,,-31,-1541,323
17:16:29.281,,-31,-1541,323
17:16:29.282,,-82,-1425,356
17:16:29.283,,-82,-1425,356
17:16:29.285,,-82,-1425,356
17:16:29.286,,-82,-1425,356
17:16:29.288,,-82,-1425,356
17:16:29.289,,-82,-1425,356
17:16:29.290,,-82,-1425,356
17:16:29.297,,-106,-1319,363
17:16:29.307,,-128,-1291,359
17:16:29.317,,-104,-1240,351
17:16:29.327,,-108,-1149,352
17:16:29.337,,-168,-955,374
17:16:29.347,,-194,-862,360
17:16:29.357,,-236,-782,354
17:16:29.367,,-231,-742,360
17:16:29.377,,-212,-639,344
17:16:29.387,,-217,-510,271
17:16:29.397,,-254,-399,217
17:16:29.407,,-225,-280,167
17:16:29.417,,-156,-164,107
17:16:29.427,,-129,-103,28
17:16:29.437,,-122,-62,-42
17:16:29.447,,-101,-30,-33
17:16:29.457,,-44,-21,-10
17:16:29.467,,-142,120,-22
17:16:29.477,,-150,208,-60
17:16:29.487,,-99,252,-100
17:16:29.497,,-23,293,-140
17:16:29.507,,-19,301,-213
17:16:29.517,,-45,318,-267
17:16:29.527,,27,346,-298
17:16:29.537,,136,398,-340
17:16:29.547,,193,482,-388
17:16:29.557,,187,589,-449
17:16:29.567,,155,704,-537
17:16:29.577,,108,780,-636
17:16:29.587,,97,801,-685
17:16:29.597,,136,671,-653
17:16:29.607,,153,592,-590
17:16:29.617,,182,520,-529
17:16:29.627,,262,471,-479
17:16:29.637,,335,490,-425
17:16:29.647,,369,559,-411
17:16:29.657,,423,634,-414
17:16:29.667,,489,667,-422
17:16:29.677,,476,683,-428
17:16:29.687,,370,691,-426
17:16:29.697,,298,734,-370
17:16:29.707,,320,796,-264
17:16:29.717,,261,823,-12
17:16:29.727,,389,1033,38
17:16:29.737,,548,1187,37
17:16:29.747,,654,1360,-32
17:16:29.757,,751,1532,-126
17:16:29.767,,805,1672,-221
17:16:29.777,,839,1794,-289
17:16:29.787,,839,1880,-349
17:16:29.797,,812,1915,-417
17:16:29.807,,797,1954,-435
17:16:29.817,,855,1979,-417
17:16:29.827,,914,1985,-414
17:16:29.837,,940,1974,-433
17:16:29.847,,942,1866,-543
17:16:29.857,,856,1829,-591
17:16:29.867,,858,1790,-623
17:16:29.877,,838,1780,-641
17:16:29.887,,798,1785,-630
17:16:29.897,,778,1786,-602
17:16:29.907,,747,1785,-561
17:16:29.917,,684,1756,-528
17:16:29.927,,612,1704,-487
17:16:29.937,,547,1639,-446
17:16:29.947,,538,1598,-426
17:16:29.957,,539,1603,-405
17:16:29.967,,513,1610,-397
17:16:29.977,,417,1525,-398
17:16:29.987,,405,1505,-375
17:16:29.997,,379,1466,-354
17:16:30.007,,336,1392,-338
17:16:30.017,,307,1299,-315
17:16:30.027,,291,1203,-285
17:16:30.037,,299,1114,-253
17:16:30.047,,309,1027,-218
17:16:30.057,,290,946,-220
17:16:30.067,,230,895,-251
17:16:30.077,,156,861,-238
17:16:30.087,,98,815,-215
17:16:30.097,,60,757,-195
17:16:30.107,,-71,602,-133
17:16:30.117,,-114,516,-105
17:16:30.127,,-129,432,-86
17:16:30.137,,-124,374,-84
17:16:30.147,,-125,339,-98
17:16:30.157,,-140,310,-113
17:16:30.167,,-163,287,-120
17:16:30.177,,-193,261,-127
17:16:30.187,,-236,223,-132
17:16:30.197,,-270,189,-123
17:16:30.207,,-271,128,-102
17:16:30.217,,-261,63,-71
17:16:30.227,,-243,-4,-48
17:16:30.237,,-197,-160,-21
17:16:30.247,,-184,-203,-32
17:16:30.257,,-165,-249,-54
17:16:30.267,,-152,-276,-84
17:16:30.277,,-156,-292,-99
17:16:30.287,,-167,-304,-110
17:16:30.297,,-163,-341,-116
17:16:30.307,,-117,-419,-89
17:16:30.317,,-32,-541,-91
17:16:30.327,,42,-650,-61
17:16:30.337,,111,-776,-108
17:16:30.347,,132,-881,-136
17:16:30.357,,98,-919,-191
17:16:30.367,,62,-849,-199
17:16:30.377,,82,-863,-149
17:16:30.387,,95,-942,-130
17:16:30.397,,68,-1018,-95
17:16:30.407,,27,-1111,-79
17:16:30.417,,10,-1222,-51
17:16:30.427,,13,-1310,16
17:16:30.437,,-27,-1402,73
17:16:30.447,,-45,-1594,60
17:16:30.457,,-50,-1791,66
17:16:30.467,,-67,-1916,69
17:16:30.477,,-56,-1984,68
17:16:30.487,,-54,-1998,60
17:16:30.497,,-60,-1998,59
17:16:30.507,,-75,-1998,58
17:16:30.517,,-86,-1998,50
17:16:30.527,,-49,-1998,18
17:16:30.537,,-161,-1998,-2
17:16:30.547,,-204,-1998,-32
17:16:30.557,,-347,-1995,76
17:16:30.567,,-295,-1922,63
17:16:30.577,,-218,-1767,254
17:16:30.587,,-479,-1941,198
17:16:30.597,,-446,-1702,311
17:16:30.607,,-373,-1451,296
17:16:30.617,,-501,-1209,228
17:16:30.627,,-479,-1099,248
17:16:30.637,,-380,-988,258
17:16:30.647,,-372,-815,256
17:16:30.769,,-316,-98,-136
17:16:30.770,,-316,-98,-136
17:16:30.771,,-316,-98,-136
17:16:30.773,,-316,-98,-136
17:16:30.774,,-316,-98,-136
17:16:30.775,,-285,-72,-135
17:16:30.777,,-285,-72,-135
17:16:30.778,,-285,-72,-135
17:16:30.779,,-285,-72,-135
17:16:30.781,,-285,-72,-135
17:16:30.782,,-285,-72,-135
17:16:30.784,,-285,-72,-135
17:16:30.785,,-246,-43,-154
17:16:30.787,,-246,-43,-154
17:16:30.797,,-246,17,-202
17:16:30.807,,-249,104,-235
17:16:30.817,,-224,186,-261
17:16:30.827,,-205,297,-328
17:16:30.837,,-198,371,-356
17:16:30.847,,-197,413,-362
17:16:30.857,,-202,449,-343
17:16:30.867,,-225,498,-341
17:16:30.877,,-182,525,-365
17:16:30.887,,-165,535,-371
17:16:30.897,,-139,540,-373
17:16:30.907,,-116,549,-365
17:16:30.917,,-147,593,-355
17:16:30.927,,-161,645,-365
17:16:30.937,,-105,695,-353
17:16:30.947,,-53,719,-331
17:16:30.957,,-17,715,-308
17:16:30.967,,-10,716,-310
17:16:30.977,,-23,720,-308
17:16:30.987,,-26,733,-304
17:16:30.997,,0,713,-235
17:16:31.007,,45,690,-117
17:16:31.017,,62,741,-94
17:16:31.027,,117,813,-83
17:16:31.037,,121,923,-110
17:16:31.047,,148,1048,-156
17:16:31.057,,197,1112,-220
17:16:31.067,,235,1158,-194
17:16:31.077,,338,1212,-160
17:16:31.087,,332,1225,-215
17:16:31.097,,250,1274,-133
17:16:31.107,,327,1314,-208
17:16:31.117,,354,1366,-173
17:16:31.127,,450,1391,-272
17:16:31.137,,674,1573,-391
17:16:31.147,,791,1701,-531
17:16:31.157,,889,1850,-691
17:16:31.167,,1013,1967,-765
17:16:31.177,,1102,1997,-759
17:16:31.187,,1045,1997,-748
17:16:31.197,,908,1996,-723
17:16:31.207,,797,1997,-665
17:16:31.217,,691,1997,-615
17:16:31.227,,577,1997,-573
17:16:31.237,,478,1990,-536
17:16:31.247,,398,1964,-510
17:16:31.257,,345,1924,-491
17:16:31.267,,362,1880,-484
17:16:31.277,,387,1811,-460
17:16:31.287,,389,1734,-427
17:16:31.297,,328,1656,-396
17:16:31.307,,310,1556,-351
17:16:31.317,,295,1473,-289
17:16:31.327,,259,1401,-259
17:16:31.337,,235,1339,-241
17:16:31.347,,208,1302,-236
17:16:31.357,,216,1259,-236
17:16:31.367,,228,1196,-252
17:16:31.377,,230,1113,-281
17:16:31.387,,193,967,-334
17:16:31.397,,182,922,-340
17:16:31.407,,168,856,-317
17:16:31.417,,147,788,-297
17:16:31.427,,102,731,-272
17:16:31.437,,55,670,-227
17:16:31.447,,-5,602,-177
17:16:31.457,,-79,543,-140
17:16:31.467,,-159,482,-119
17:16:31.477,,-217,409,-107
17:16:31.487,,-241,344,-98
17:16:31.497,,-266,303,-104
17:16:31.507,,-285,279,-96
17:16:31.517,,-293,188,-58
17:16:31.527,,-313,127,-31
17:16:31.537,,-313,43,-9
17:16:31.547,,-330,-42,23
17:16:31.557,,-349,-89,53
17:16:31.567,,-361,-92,70
17:16:31.577,,-358,-156,54
17:16:31.587,,-349,-182,16
17:16:31.597,,-337,-160,-24
17:16:31.607,,-288,-155,-78
17:16:31.617,,-234,-158,-141
17:16:31.627,,-195,-155,-202
17:16:31.637,,-160,-190,-209
17:16:31.647,,-104,-275,-220
17:16:31.657,,-41,-350,-226
17:16:31.667,,1,-439,-221
17:16:31.677,,-23,-498,-179
17:16:31.687,,-69,-537,-152
17:16:31.697,,-50,-585,-133
17:16:31.707,,-8,-643,-102
17:16:31.717,,53,-751,-44
17:16:31.727,,105,-1035,46
17:16:31.737,,152,-1342,72
17:16:31.747,,210,-1557,64
17:16:31.757,,262,-1638,86
17:16:31.767,,266,-1620,57
17:16:31.777,,88,-1415,11
17:16:31.787,,52,-1367,-24
17:16:31.797,,86,-1422,-17
17:16:31.807,,154,-1585,18
17:16:31.817,,215,-1798,55
17:16:31.827,,208,-1998,122
17:16:31.837,,264,-1998,176
17:16:31.847,,243,-1998,176
17:16:31.857,,231,-1998,141
17:16:31.867,,203,-1998,88
17:16:31.877,,188,-1998,36
17:16:31.887,,252,-1998,24
17:16:31.897,,215,-1938,-36
17:16:31.907,,97,-1774,6
17:16:31.917,,176,-1777,-106
17:16:31.927,,157,-1729,-3
17:16:31.937,,-86,-1628,120
17:16:31.947,,-173,-1507,197
17:16:31.957,,-139,-1348,248
17:16:31.967,,-161,-1233,249
17:16:31.977,,-232,-1118,254
17:16:31.987,,-222,-994,227
17:16:31.997,,-229,-881,191
17:16:32.007,,-253,-768,200
17:16:32.017,,-245,-688,194
17:16:32.027,,-276,-568,93
17:16:32.037,,-316,-485,70
17:16:32.047,,-321,-373,25
17:16:32.057,,-318,-307,-25
17:16:32.067,,-327,-302,-64
17:16:32.077,,-334,-295,-62
17:16:32.087,,-315,-262,-61
17:16:32.097,,-299,-213,-101
17:16:32.107,,-256,-135,-153
17:16:32.117,,-243,-61,-165
17:16:32.127,,-269,-13,-185
17:16:32.251,,-47,679,-633
17:16:32.253,,-47,679,-633
17:16:32.254,,-47,679,-633
17:16:32.255,,-47,679,-633
17:16:32.257,,-47,679,-633
17:16:32.258,,-47,679,-633
17:16:32.260,,61,607,-650
17:16:32.261,,61,607,-650
17:16:32.262,,61,607,-650
17:16:32.264,,61,607,-650
17:16:32.265,,61,607,-650
17:16:32.266,,61,607,-650
17:16:32.268,,61,607,-565
17:16:32.269,,101,519,-565
17:16:32.277,,101,519,-565
17:16:32.287,,-32,483,-459
17:16:32.297,,-35,508,-418
17:16:32.307,,-7,594,-408
17:16:32.317,,75,606,-448
17:16:32.327,,148,601,-427
17:16:32.337,,181,628,-395
17:16:32.347,,201,667,-357
17:16:32.357,,182,688,-302
17:16:32.367,,145,755,-244
17:16:32.377,,178,850,-227
17:16:32.387,,278,925,-189
17:16:32.397,,326,944,-210
17:16:32.407,,361,1026,-163
17:16:32.417,,535,1155,-205
17:16:32.427,,610,1199,-278
17:16:32.437,,682,1296,-354
17:16:32.447,,748,1427,-483
17:16:32.457,,817,1537,-621
17:16:32.467,,885,1609,-737
17:16:32.477,,949,1682,-766
17:16:32.487,,979,1749,-759
17:16:32.497,,988,1747,-748
17:16:32.507,,946,1722,-763
17:16:32.517,,926,1733,-782
17:16:32.527,,969,1743,-802
17:16:32.537,,988,1721,-856
17:16:32.547,,976,1770,-869
17:16:32.557,,992,1753,-880
17:16:32.567,,1002,1714,-871
17:16:32.577,,1007,1679,-851
17:16:32.587,,983,1650,-828
17:16:32.597,,949,1623,-828
17:16:32.607,,923,1596,-829
17:16:32.617,,879,1560,-819
17:16:32.627,,849,1526,-782
17:16:32.637,,838,1516,-746
17:16:32.647,,831,1505,-713
17:16:32.657,,803,1488,-639
17:16:32.667,,740,1416,-502
17:16:32.677,,559,1348,-454
17:16:32.687,,468,1277,-408
17:16:32.697,,408,1215,-371
17:16:32.707,,369,1180,-343
17:16:32.717,,324,1156,-328
17:16:32.727,,271,1114,-306
17:16:32.737,,256,1041,-277
17:16:32.747,,248,958,-251
17:16:32.757,,214,862,-233
17:16:32.767,,187,757,-226
17:16:32.777,,167,647,-227
17:16:32.787,,129,551,-235
17:16:32.797,,102,430,-271
17:16:32.807,,60,399,-271
17:16:32.817,,12,366,-279
17:16:32.827,,-13,328,-276
17:16:32.837,,-36,299,-266
17:16:32.847,,-68,263,-253
17:16:32.857,,-86,225,-234
17:16:32.867,,-103,188,-209
17:16:32.877,,-128,126,-177
17:16:32.887,,-134,50,-157
17:16:32.897,,-131,9,-131
17:16:32.907,,-167,-7,-102
17:16:32.917,,-201,-21,-60
17:16:32.927,,-269,-81,40
17:16:32.937,,-266,-134,63
17:16:32.947,,-218,-193,62
17:16:32.957,,-116,-303,60
17:16:32.967,,1,-445,53
17:16:32.977,,47,-569,61
17:16:32.987,,0,-651,86
17:16:32.997,,-52,-719,53
17:16:33.007,,-123,-729,51
17:16:33.017,,-127,-737,-16
17:16:33.027,,-109,-709,-38
17:16:33.037,,-20,-693,-68
17:16:33.047,,56,-689,-56
17:16:33.057,,190,-1009,85
17:16:33.067,,188,-1210,107
17:16:33.077,,112,-1286,158
17:16:33.087,,29,-1274,158
17:16:33.097,,-1,-1258,153
17:16:33.107,,22,-1265,162
17:16:33.117,,39,-1299,170
17:16:33.127,,71,-1373,198
17:16:33.137,,151,-1527,239
17:16:33.147,,209,-1732,271
17:16:33.157,,242,-1954,300
17:16:33.167,,284,-1998,295
17:16:33.177,,333,-1998,234
17:16:33.187,,136,-1998,348
17:16:33.197,,249,-1998,98
17:16:33.207,,251,-1998,86
17:16:33.217,,235,-1998,235
17:16:33.227,,185,-1998,256
17:16:33.237,,89,-1998,269
17:16:33.247,,94,-1998,297
17:16:33.257,,16,-1990,296
17:16:33.267,,-87,-1899,385
17:16:33.277,,-91,-1635,422
17:16:33.287,,-115,-1488,416
17:16:33.297,,-244,-1443,429
17:16:33.307,,-204,-1232,409
17:16:33.317,,-22,-1074,368
17:16:33.327,,-20,-964,257
17:16:33.337,,-34,-875,179
17:16:33.347,,-56,-760,159
17:16:33.357,,-73,-627,171
17:16:33.367,,-77,-520,180
17:16:33.377,,-103,-484,204
17:16:33.387,,-141,-437,175
17:16:33.397,,-186,-352,151
17:16:33.407,,-210,-265,127
17:16:33.417,,-206,-217,91
17:16:33.427,,-215,-176,71
17:16:33.437,,-124,-69,-71
17:16:33.447,,-114,-32,-153
17:16:33.457,,-79,12,-220
17:16:33.467,,-14,87,-265
17:16:33.477,,19,182,-305
17:16:33.487,,34,221,-349
17:16:33.497,,40,256,-370
17:16:33.507,,5,297,-346
17:16:33.517,,-26,306,-345
17:16:33.527,,5,312,-339
17:16:33.537,,51,339,-323
17:16:33.547,,121,362,-288
17:16:33.557,,193,403,-267
17:16:33.567,,236,573,-238
17:16:33.577,,228,709,-248
17:16:33.587,,217,836,-303
17:16:33.597,,209,957,-339
17:16:33.607,,194,1047,-345
17:16:33.617,,180,1099,-334
17:16:33.627,,146,1124,-331
17:16:33.748,,677,1486,-451
17:16:33.749,,677,1486,-451
17:16:33.751,,677,1486,-451
17:16:33.752,,677,1594,-492
17:16:33.753,,601,1594,-492
17:16:33.755,,601,1594,-492
17:16:33.756,,601,1594,-492
17:16:33.757,,601,1594,-492
17:16:33.759,,601,1594,-492
17:16:33.760,,601,1594,-492
17:16:33.762,,656,1700,-576
17:16:33.763,,656,1700,-576
17:16:33.764,,656,1700,-576
17:16:33.767,,656,1700,-576
17:16:33.777,,735,1800,-591
17:16:33.787,,823,1873,-613
17:16:33.797,,867,1911,-665
17:16:33.807,,900,1962,-707
17:16:33.817,,910,1992,-754
17:16:33.827,,998,1996,-775
17:16:33.837,,897,1997,-767
17:16:33.847,,791,1997,-775
17:16:33.857,,742,1997,-743
17:16:33.867,,691,1969,-657
17:16:33.877,,655,1868,-562
17:16:33.887,,632,1780,-481
17:16:33.897,,592,1763,-411
17:16:33.907,,554,1757,-388
17:16:33.917,,481,1768,-408
17:16:33.927,,388,1773,-421
17:16:33.937,,280,1775,-436
17:16:33.947,,224,1744,-347
17:16:33.957,,257,1577,-266
17:16:33.967,,271,1463,-186
17:16:33.977,,266,1338,-123
17:16:33.987,,228,1215,-134
17:16:33.997,,199,1109,-148
17:16:34.007,,195,1006,-160
17:16:34.017,,225,901,-174
17:16:34.027,,233,808,-184
17:16:34.037,,184,749,-185
17:16:34.047,,125,692,-182
17:16:34.057,,59,631,-187
17:16:34.067,,21,573,-181
17:16:34.077,,13,452,-119
17:16:34.087,,-12,387,-89
17:16:34.097,,-31,320,-67
17:16:34.107,,-38,261,-66
17:16:34.117,,-70,228,-87
17:16:34.127,,-87,197,-109
17:16:34.137,,-97,150,-136
17:16:34.147,,-112,118,-150
17:16:34.157,,-127,109,-157
17:16:34.167,,-110,75,-179
17:16:34.177,,-74,25,-186
17:16:34.187,,-66,-37,-174
17:16:34.197,,-32,-110,-173
17:16:34.207,,64,-302,-193
17:16:34.217,,108,-377,-189
17:16:34.227,,142,-439,-210
17:16:34.237,,129,-510,-185
17:16:34.247,,152,-570,-211
17:16:34.257,,160,-619,-202
17:16:34.267,,146,-653,-165
17:16:34.277,,142,-684,-117
17:16:34.287,,133,-726,-58
17:16:34.297,,121,-781,17
17:16:34.307,,79,-834,123
17:16:34.317,,5,-868,225
17:16:34.327,,-43,-900,298
17:16:34.337,,33,-988,314
17:16:34.347,,54,-1024,298
17:16:34.357,,42,-1028,262
17:16:34.367,,45,-1014,223
17:16:34.377,,97,-1014,225
17:16:34.387,,161,-1074,236
17:16:34.397,,160,-1198,233
17:16:34.407,,153,-1274,300
17:16:34.417,,256,-1268,335
17:16:34.427,,306,-1396,372
17:16:34.437,,295,-1707,399
17:16:34.447,,399,-1817,383
17:16:34.457,,383,-1998,374
17:16:34.467,,445,-1998,372
17:16:34.477,,428,-1998,397
17:16:34.487,,436,-1998,427
17:16:34.497,,410,-1998,497
17:16:34.507,,396,-1998,483
17:16:34.517,,343,-1998,445
17:16:34.527,,291,-1998,511
17:16:34.537,,247,-1998,549
17:16:34.547,,202,-1998,500
17:16:34.557,,154,-1965,474
17:16:34.567,,136,-1822,490
17:16:34.577,,99,-1637,518
17:16:34.587,,56,-1489,569
17:16:34.597,,-48,-1250,606
17:16:34.607,,-98,-1141,650
17:16:34.617,,-156,-1033,662
17:16:34.627,,-206,-930,648
17:16:34.637,,-237,-822,607
17:16:34.647,,-230,-713,568
17:16:34.657,,-205,-600,507
17:16:34.667,,-178,-506,434
17:16:34.677,,-159,-421,368
17:16:34.687,,-166,-358,314
17:16:34.697,,-183,-284,294
17:16:34.707,,-179,-241,259
17:16:34.717,,-184,-155,168
17:16:34.727,,-192,-106,83
17:16:34.737,,-180,-49,41
17:16:34.747,,-199,39,27
17:16:34.757,,-195,126,-8
17:16:34.767,,-180,181,-46
17:16:34.777,,-159,217,-77
17:16:34.787,,-130,259,-94
17:16:34.797,,-97,290,-125
17:16:34.807,,-80,297,-143
17:16:34.817,,-105,320,-149
17:16:34.827,,-119,355,-175
17:16:34.837,,-122,409,-206
17:16:34.847,,-127,535,-249
17:16:34.857,,-110,552,-269
17:16:34.867,,-83,575,-326
17:16:34.877,,-76,617,-341
17:16:34.887,,-91,658,-400
17:16:34.897,,-86,706,-451
17:16:34.907,,-73,763,-475
17:16:34.917,,-52,821,-463
17:16:34.927,,-46,854,-459
17:16:34.937,,-7,799,-443
17:16:34.947,,9,760,-413
17:16:34.957,,102,703,-422
17:16:34.967,,201,707,-414
17:16:34.977,,262,803,-497
17:16:34.987,,286,883,-517
17:16:34.997,,317,937,-503
17:16:35.007,,307,963,-410
17:16:35.017,,265,992,-327
17:16:35.027,,258,993,-283
17:16:35.037,,253,1006,-258
17:16:35.047,,284,1031,-258
17:16:35.057,,304,1105,-236
17:16:35.067,,321,1229,-276
17:16:35.077,,319,1385,-358
17:16:35.087,,389,1589,-372
17:16:35.097,,491,1807,-508
17:16:35.107,,604,1953,-775
17:16:35.117,,652,1997,-839
17:16:35.232,,505,1577,-493
17:16:35.234,,505,1577,-493
17:16:35.235,,505,1577,-493
17:16:35.236,,445,1482,-452
17:16:35.238,,445,1482,-452
17:16:35.239,,445,1482,-452
17:16:35.240,,445,1482,-452
17:16:35.242,,445,1482,-452
17:16:35.243,,445,1482,-452
17:16:35.245,,445,1482,-452
17:16:35.246,,397,1421,-460
17:16:35.247,,397,1421,-460
17:16:35.249,,397,1421,-460
17:16:35.257,,357,1371,-470
17:16:35.267,,310,1315,-469
17:16:35.277,,285,1252,-458
17:16:35.286,,258,1184,-430
17:16:35.297,,240,1109,-404
17:16:35.307,,236,1030,-378
17:16:35.316,,238,934,-334
17:16:35.327,,215,831,-267
17:16:35.337,,165,740,-209
17:16:35.346,,130,657,-162
17:16:35.357,,93,598,-133
17:16:35.367,,38,533,-144
17:16:35.376,,14,515,-144
17:16:35.387,,-14,500,-152
17:16:35.397,,-35,475,-151
17:16:35.406,,-31,429,-111
17:16:35.417,,-48,355,-42
17:16:35.427,,-83,267,22
17:16:35.436,,-118,180,74
17:16:35.447,,-150,108,83
17:16:35.456,,-171,60,69
17:16:35.466,,-195,27,69
17:16:35.477,,-192,-17,54
17:16:35.486,,-154,-157,22
17:16:35.496,,-158,-200,-1
17:16:35.507,,-152,-251,-22
17:16:35.516,,-141,-299,-18
17:16:35.526,,-151,-315,-11
17:16:35.537,,-158,-330,-13
17:16:35.546,,-154,-359,-36
17:16:35.556,,-130,-387,-71
17:16:35.567,,-134,-398,-90
17:16:35.576,,-150,-382,-116
17:16:35.586,,-131,-387,-117
17:16:35.596,,-61,-463,-113
17:16:35.606,,7,-590,-76
17:16:35.616,,22,-762,-16
17:16:35.626,,10,-781,6
17:16:35.636,,16,-750,22
17:16:35.646,,213,-743,118
17:16:35.656,,-52,-671,120
17:16:35.666,,-71,-718,69
17:16:35.676,,-22,-740,87
17:16:35.686,,205,-902,137
17:16:35.696,,375,-1110,175
17:16:35.706,,507,-1368,200
17:16:35.716,,664,-1725,265
17:16:35.726,,685,-1979,331
17:16:35.736,,532,-1998,307
17:16:35.746,,275,-1961,148
17:16:35.756,,461,-1703,198
17:16:35.766,,558,-1867,298
17:16:35.776,,532,-1998,379
17:16:35.786,,598,-1998,332
17:16:35.796,,634,-1998,474
17:16:35.806,,576,-1998,346
17:16:35.816,,520,-1998,361
17:16:35.826,,436,-1998,383
17:16:35.836,,307,-1998,434
17:16:35.846,,247,-1998,405
17:16:35.856,,207,-1948,470
17:16:35.866,,206,-1804,471
17:16:35.876,,112,-1478,475
17:16:35.886,,80,-1314,483
17:16:35.896,,38,-1169,453
17:16:35.906,,-42,-1048,467
17:16:35.916,,-104,-906,496
17:16:35.926,,-145,-795,518
17:16:35.936,,-184,-716,524
17:16:35.946,,-248,-654,540
17:16:35.956,,-281,-583,536
17:16:35.966,,-288,-523,499
17:16:35.976,,-295,-473,453
17:16:35.986,,-287,-427,385
17:16:35.996,,-251,-416,325
17:16:36.006,,-229,-393,310
17:16:36.016,,-254,-337,291
17:16:36.026,,-282,-273,274
17:16:36.036,,-303,-208,255
17:16:36.046,,-324,-114,250
17:16:36.056,,-363,-8,231
17:16:36.066,,-368,45,203
17:16:36.076,,-379,56,183
17:16:36.086,,-385,23,176
17:16:36.096,,-385,-24,171
17:16:36.106,,-360,-60,169
17:16:36.116,,-338,-71,159
17:16:36.126,,-359,-55,118
17:16:36.136,,-378,-11,86
17:16:36.146,,-375,43,74
17:16:36.156,,-352,83,72
17:16:36.166,,-347,121,7
17:16:36.176,,-344,163,3
17:16:36.186,,-344,227,-27
17:16:36.196,,-327,269,-87
17:16:36.206,,-274,298,-127
17:16:36.216,,-245,318,-134
17:16:36.226,,-276,349,-150
17:16:36.236,,-331,407,-162
17:16:36.246,,-378,487,-188
17:16:36.256,,-408,670,-286
17:16:36.266,,-452,757,-333
17:16:36.276,,-506,835,-344
17:16:36.286,,-498,876,-358
17:16:36.296,,-488,904,-328
17:16:36.306,,-445,857,-334
17:16:36.316,,-425,870,-289
17:16:36.326,,-408,893,-239
17:16:36.336,,-389,930,-138
17:16:36.346,,-334,1012,-14
17:16:36.356,,-374,1081,213
17:16:36.366,,-463,1139,475
17:16:36.376,,-540,1290,729
17:16:36.386,,-665,1736,982
17:16:36.396,,-630,1916,936
17:16:36.406,,-575,1996,844
17:16:36.416,,-521,1997,770
17:16:36.426,,-468,1997,734
17:16:36.436,,-505,1997,688
17:16:36.446,,-574,1997,652
17:16:36.456,,-656,1982,654
17:16:36.466,,-640,1830,610
17:16:36.476,,-660,1697,572
17:16:36.486,,-682,1627,541
17:16:36.496,,-679,1609,522
17:16:36.506,,-691,1576,495
17:16:36.516,,-709,1496,436
17:16:36.526,,-747,1441,435
17:16:36.536,,-705,1380,391
17:16:36.546,,-666,1280,396
17:16:36.556,,-654,1228,437
17:16:36.566,,-627,1225,441
17:16:36.576,,-638,1218,457
17:16:36.586,,-686,1235,466
17:16:36.596,,-667,1231,435
17:16:36.606,,-662,1221,382
17:16:36.727,,-336,520,100
17:16:36.728,,-336,520,100
17:16:36.730,,-348,494,95
17:16:36.731,,-348,494,95
17:16:36.732,,-348,494,95
17:16:36.734,,-348,494,95
17:16:36.735,,-348,494,95
17:16:36.737,,-348,494,95
17:16:36.738,,-348,494,95
17:16:36.739,,-339,450,83
17:16:36.741,,-339,450,83
17:16:36.742,,-339,450,83
17:16:36.743,,-339,450,83
17:16:36.746,,-339,450,83
17:16:36.756,,-273,399,57
17:16:36.766,,-222,357,76
17:16:36.776,,-205,253,84
17:16:36.786,,-192,182,78
17:16:36.796,,-141,121,53
17:16:36.806,,-104,82,25
17:16:36.816,,-84,33,30
17:16:36.826,,-53,-24,37
17:16:36.836,,-38,-43,37
17:16:36.846,,-39,-53,40
17:16:36.856,,-32,-64,25
17:16:36.866,,24,-94,15
17:16:36.876,,126,-178,9
17:16:36.886,,168,-240,40
17:16:36.896,,174,-430,111
17:16:36.906,,249,-538,107
17:16:36.916,,287,-647,100
17:16:36.926,,290,-730,141
17:16:36.936,,227,-822,215
17:16:36.946,,163,-893,256
17:16:36.956,,81,-882,298
17:16:36.966,,37,-872,383
17:16:36.976,,69,-927,476
17:16:36.986,,141,-1100,577
17:16:36.996,,198,-1341,641
17:16:37.006,,221,-1593,676
17:16:37.016,,219,-1793,674
17:16:37.026,,245,-1998,583
17:16:37.036,,315,-1998,552
17:16:37.046,,416,-1998,545
17:16:37.056,,443,-1998,503
17:16:37.066,,536,-1998,490
17:16:37.076,,543,-1998,566
17:16:37.086,,463,-1998,459
17:16:37.096,,372,-1998,489
17:16:37.106,,383,-1998,409
17:16:37.116,,319,-1998,427
17:16:37.126,,322,-1950,419
17:16:37.136,,199,-1938,311
17:16:37.146,,69,-1740,388
17:16:37.156,,71,-1520,515
17:16:37.166,,-55,-1313,597
17:16:37.176,,-81,-1378,440
17:16:37.186,,-80,-1067,460
17:16:37.196,,-97,-1481,131
17:16:37.206,,-166,-1066,520
17:16:37.216,,-181,-873,508
17:16:37.226,,-244,-749,433
17:16:37.236,,-249,-722,338
17:16:37.246,,-238,-776,266
17:16:37.256,,-259,-774,297
17:16:37.266,,-268,-656,284
17:16:37.276,,-276,-533,267
17:16:37.286,,-346,-563,201
17:16:37.296,,-345,-585,182
17:16:37.306,,-359,-536,144
17:16:37.316,,-391,-504,116
17:16:37.326,,-409,-495,87
17:16:37.336,,-371,-486,57
17:16:37.346,,-342,-490,18
17:16:37.356,,-343,-464,-25
17:16:37.366,,-360,-403,-75
17:16:37.376,,-364,-317,-133
17:16:37.386,,-372,-262,-173
17:16:37.396,,-364,-251,-205
17:16:37.406,,-364,-262,-170
17:16:37.416,,-412,-236,-180
17:16:37.426,,-462,-174,-175
17:16:37.436,,-459,-134,-194
17:16:37.446,,-445,-81,-198
17:16:37.456,,-456,-25,-227
17:16:37.466,,-429,47,-292
17:16:37.476,,-373,114,-354
17:16:37.486,,-316,179,-428
17:16:37.496,,-225,250,-475
17:16:37.506,,-141,300,-522
17:16:37.516,,-155,320,-544
17:16:37.526,,-235,324,-580
17:16:37.536,,-282,400,-559
17:16:37.546,,-307,385,-499
17:16:37.556,,-389,357,-430
17:16:37.566,,-413,358,-363
17:16:37.576,,-414,384,-294
17:16:37.586,,-375,405,-212
17:16:37.596,,-353,431,-138
17:16:37.606,,-352,496,-98
17:16:37.616,,-376,582,-74
17:16:37.626,,-407,657,-64
17:16:37.636,,-403,712,-48
17:16:37.646,,-384,724,-6
17:16:37.656,,-379,716,60
17:16:37.666,,-374,785,224
17:16:37.676,,-388,912,292
17:16:37.686,,-377,1048,300
17:16:37.696,,-413,1171,331
17:16:37.706,,-368,1356,319
17:16:37.716,,-232,1590,257
17:16:37.726,,-241,1849,210
17:16:37.736,,-320,1996,142
17:16:37.746,,-391,1997,56
17:16:37.756,,-463,1997,2
17:16:37.766,,-536,1997,-29
17:16:37.776,,-597,1997,-53
17:16:37.786,,-622,1997,-24
17:16:37.796,,-599,1997,-70
17:16:37.806,,-580,1996,-88
17:16:37.816,,-601,1930,-94
17:16:37.826,,-596,1813,-74
17:16:37.836,,-620,1704,-45
17:16:37.846,,-630,1596,-4
17:16:37.856,,-649,1514,39
17:16:37.866,,-662,1467,72
17:16:37.876,,-642,1428,108
17:16:37.886,,-631,1378,108
17:16:37.896,,-653,1310,125
17:16:37.906,,-657,1250,137
17:16:37.916,,-611,1162,123
17:16:37.926,,-546,1015,167
17:16:37.936,,-539,979,166
17:16:37.946,,-534,956,172
17:16:37.956,,-582,971,190
17:16:37.966,,-623,988,185
17:16:37.976,,-593,960,134
17:16:37.986,,-515,906,66
17:16:37.996,,-436,841,6
17:16:38.006,,-359,758,-30
17:16:38.016,,-315,648,-23
17:16:38.026,,-290,532,-17
17:16:38.036,,-263,414,-30
17:16:38.046,,-195,311,-18
17:16:38.056,,-132,134,-12
17:16:38.066,,-132,75,-7
17:16:38.076,,-123,41,-21
17:16:38.086,,-114,11,-37
17:16:38.096,,-102,-9,-25
17:16:38.106,,-80,-39,-9
17:16:38.116,,-8,-109,2
17:16:38.231,,163,-724,107
17:16:38.233,,244,-912,119
17:16:38.234,,244,-912,119
17:16:38.235,,244,-912,119
17:16:38.237,,244,-912,119
17:16:38.238,,244,-912,119
17:16:38.240,,244,-912,119
17:16:38.241,,244,-912,119
17:16:38.242,,254,-1061,108
17:16:38.244,,254,-1061,108
17:16:38.245,,254,-1061,108
17:16:38.246,,254,-1061,108
17:16:38.248,,254,-1061,108
17:16:38.256,,188,-1115,83
17:16:38.266,,125,-1100,56
17:16:38.276,,96,-1030,49
17:16:38.286,,81,-959,71
17:16:38.296,,77,-908,81
17:16:38.306,,183,-1052,80
17:16:38.316,,276,-1088,96
17:16:38.326,,303,-1271,80
17:16:38.336,,322,-1402,72
17:16:38.346,,320,-1499,109
17:16:38.356,,316,-1537,139
17:16:38.366,,314,-1688,167
17:16:38.376,,403,-1741,219
17:16:38.386,,333,-1993,289
17:16:38.396,,340,-1998,382
17:16:38.406,,386,-1998,458
17:16:38.416,,346,-1998,518
17:16:38.426,,281,-1998,505
17:16:38.436,,177,-1998,456
17:16:38.446,,180,-1998,424
17:16:38.456,,220,-1998,422
17:16:38.466,,218,-1998,396
17:16:38.476,,218,-1998,380
17:16:38.486,,250,-1883,394
17:16:38.496,,237,-1749,355
17:16:38.506,,208,-1584,330
17:16:38.516,,101,-1634,305
17:16:38.526,,112,-1519,364
17:16:38.536,,145,-1398,344
17:16:38.546,,168,-1310,347
17:16:38.556,,92,-1263,356
17:16:38.566,,-28,-1027,409
17:16:38.576,,-4,-915,418
17:16:38.586,,-10,-825,395
17:16:38.596,,-49,-746,377
17:16:38.606,,-97,-688,333
17:16:38.616,,-134,-638,347
17:16:38.626,,-112,-594,290
17:16:38.636,,-88,-617,233
17:16:38.646,,-122,-598,220
17:16:38.656,,-168,-539,217
17:16:38.666,,-203,-521,174
17:16:38.676,,-178,-401,143
17:16:38.686,,-185,-369,105
17:16:38.696,,-216,-287,-8
17:16:38.706,,-220,-251,-44
17:16:38.716,,-229,-197,-40
17:16:38.726,,-215,-171,-73
17:16:38.736,,-226,-196,-82
17:16:38.746,,-269,-204,-71
17:16:38.756,,-317,-177,-33
17:16:38.766,,-293,-118,-8
17:16:38.776,,-291,-55,2
17:16:38.786,,-283,3,-25
17:16:38.796,,-293,45,-76
17:16:38.806,,-248,165,-169
17:16:38.816,,-179,258,-285
17:16:38.826,,-29,358,-342
17:16:38.836,,-18,372,-367
17:16:38.846,,-71,419,-362
17:16:38.856,,-126,513,-368
17:16:38.866,,-188,631,-392
17:16:38.876,,-303,722,-367
17:16:38.886,,-369,773,-311
17:16:38.896,,-317,762,-263
17:16:38.906,,-249,714,-200
17:16:38.916,,-170,637,-144
17:16:38.926,,-118,589,-106
17:16:38.936,,-61,627,-61
17:16:38.946,,-27,853,73
17:16:38.956,,-93,946,124
17:16:38.966,,-99,977,152
17:16:38.976,,-155,1101,286
17:16:38.986,,-254,1260,458
17:16:38.996,,-443,1379,623
17:16:39.006,,-670,1452,736
17:16:39.016,,-732,1511,788
17:16:39.026,,-690,1572,808
17:16:39.036,,-717,1644,818
17:16:39.046,,-830,1757,756
17:16:39.056,,-857,1864,653
17:16:39.066,,-890,1955,580
17:16:39.076,,-1010,1997,411
17:16:39.086,,-1000,1997,308
17:16:39.096,,-894,1997,242
17:16:39.106,,-806,1997,248
17:16:39.116,,-750,1997,247
17:16:39.126,,-683,1997,233
17:16:39.136,,-631,1953,234
17:16:39.146,,-599,1811,238
17:16:39.156,,-612,1676,261
17:16:39.166,,-628,1561,294
17:16:39.176,,-632,1460,303
17:16:39.186,,-589,1394,309
17:16:39.196,,-554,1350,309
17:16:39.206,,-556,1316,296
17:16:39.216,,-576,1317,270
17:16:39.226,,-572,1301,261
17:16:39.236,,-564,1270,273
17:16:39.246,,-582,1220,281
17:16:39.256,,-557,1149,303
17:16:39.266,,-537,1096,328
17:16:39.276,,-554,1039,326
17:16:39.286,,-574,967,325
17:16:39.296,,-589,915,317
17:16:39.306,,-575,878,281
17:16:39.316,,-517,835,201
17:16:39.326,,-444,802,131
17:16:39.336,,-447,683,93
17:16:39.346,,-417,591,76
17:16:39.356,,-374,505,73
17:16:39.366,,-339,430,63
17:16:39.376,,-315,376,60
17:16:39.386,,-322,331,76
17:16:39.396,,-304,278,78
17:16:39.406,,-273,238,59
17:16:39.416,,-229,209,45
17:16:39.426,,-211,165,64
17:16:39.436,,-214,115,72
17:16:39.446,,-247,83,86
17:16:39.456,,-236,76,84
17:16:39.466,,-138,-16,85
17:16:39.476,,-53,-83,73
17:16:39.486,,19,-125,39
17:16:39.496,,39,-159,8
17:16:39.506,,81,-203,-25
17:16:39.516,,143,-258,-18
17:16:39.526,,187,-340,5
17:16:39.536,,222,-438,28
17:16:39.546,,261,-564,53
17:16:39.556,,290,-717,88
17:16:39.566,,331,-849,114
17:16:39.576,,338,-953,130
17:16:39.586,,352,-1187,181
17:16:39.596,,294,-1249,188
17:16:39.606,,271,-1251,179
17:16:39.616,,280,-1268,177
17:16:39.737,,333,-1998,187
17:16:39.738,,333,-1998,187
17:16:39.740,,333,-1998,187
17:16:39.741,,333,-1998,187
17:16:39.742,,333,-1998,187
17:16:39.744,,333,-1998,268
17:16:39.745,,229,-1998,268
17:16:39.747,,229,-1998,268
17:16:39.748,,229,-1998,268
17:16:39.749,,229,-1998,268
17:16:39.751,,229,-1998,268
17:16:39.752,,229,-1998,268
17:16:39.753,,132,-1995,357
17:16:39.756,,132,-1995,357
17:16:39.766,,120,-1798,409
17:16:39.776,,12,-1787,358
17:16:39.786,,-118,-1699,342
17:16:39.796,,-107,-1447,433
17:16:39.806,,-74,-1300,396
17:16:39.816,,-43,-1189,383
17:16:39.826,,-28,-1148,318
17:16:39.836,,-38,-1091,246
17:16:39.846,,-42,-937,173
17:16:39.856,,-61,-931,187
17:16:39.866,,-71,-891,219
17:16:39.876,,-108,-835,218
17:16:39.886,,-186,-788,225
17:16:39.896,,-224,-733,237
17:16:39.906,,-236,-690,210
17:16:39.916,,-263,-660,185
17:16:39.926,,-261,-623,167
17:16:39.936,,-246,-540,160
17:16:39.946,,-239,-473,138
17:16:39.956,,-240,-421,99
17:16:39.966,,-245,-343,55
17:16:39.976,,-272,-172,-12
17:16:39.986,,-303,-92,-16
17:16:39.996,,-345,-8,15
17:16:40.006,,-349,30,31
17:16:40.016,,-300,12,2
17:16:40.026,,-287,22,-66
17:16:40.036,,-233,64,-154
17:16:40.046,,-137,123,-197
17:16:40.056,,-56,196,-272
17:16:40.066,,-6,257,-312
17:16:40.076,,-19,336,-366
17:16:40.086,,13,417,-419
17:16:40.096,,18,518,-460
17:16:40.106,,-177,636,-467
17:16:40.116,,-256,630,-519
17:16:40.126,,-272,590,-571
17:16:40.136,,-184,528,-641
17:16:40.146,,-75,474,-664
17:16:40.156,,44,493,-657
17:16:40.166,,125,552,-624
17:16:40.176,,142,591,-531
17:16:40.186,,115,591,-389
17:16:40.196,,-27,710,-209
17:16:40.206,,-156,848,-100
17:16:40.216,,-263,906,10
17:16:40.226,,-248,912,119
17:16:40.236,,-24,995,179
17:16:40.246,,83,1145,247
17:16:40.256,,77,1286,318
17:16:40.266,,-77,1410,525
17:16:40.276,,-357,1681,752
17:16:40.286,,-546,1911,797
17:16:40.296,,-621,1995,770
17:16:40.306,,-706,1997,801
17:16:40.316,,-725,1997,746
17:16:40.326,,-717,1997,647
17:16:40.336,,-647,1997,545
17:16:40.346,,-550,1997,463
17:16:40.356,,-472,1997,300
17:16:40.366,,-444,1994,218
17:16:40.376,,-432,1962,197
17:16:40.386,,-420,1882,175
17:16:40.396,,-468,1822,166
17:16:40.406,,-509,1784,159
17:16:40.416,,-530,1746,162
17:16:40.426,,-528,1698,165
17:16:40.436,,-489,1650,212
17:16:40.446,,-474,1601,264
17:16:40.456,,-477,1530,298
17:16:40.466,,-473,1445,322
17:16:40.476,,-494,1377,339
17:16:40.486,,-456,1336,308
17:16:40.496,,-410,1333,270
17:16:40.506,,-321,1322,190
17:16:40.516,,-302,1315,125
17:16:40.526,,-316,1266,103
17:16:40.536,,-335,1172,76
17:16:40.546,,-348,1063,72
17:16:40.556,,-319,946,87
17:16:40.566,,-257,815,127
17:16:40.576,,-230,711,173
17:16:40.586,,-269,601,195
17:16:40.596,,-259,500,222
17:16:40.606,,-242,428,213
17:16:40.616,,-147,379,155
17:16:40.626,,-107,355,127
17:16:40.636,,-78,317,77
17:16:40.646,,-67,266,31
17:16:40.656,,-94,203,20
17:16:40.666,,-99,136,13
17:16:40.676,,-73,72,23
17:16:40.686,,-52,22,30
17:16:40.696,,-3,-42,35
17:16:40.706,,99,-139,23
17:16:40.716,,190,-247,7
17:16:40.726,,275,-397,33
17:16:40.736,,352,-592,53
17:16:40.746,,325,-842,-2
17:16:40.756,,260,-857,-39
17:16:40.766,,248,-833,-60
17:16:40.776,,262,-804,-76
17:16:40.786,,267,-796,-54
17:16:40.796,,298,-851,-30
