Sensors' Acquisition [Hz]: Acc@104.0 
hh:mm:ss.ms, Annotation , AccX [mg], AccY, AccZ
12:43:31.348,,-478,118,1128
12:43:31.358,,-487,67,1148
12:43:31.368,,-541,22,1176
12:43:31.378,,-562,-36,1240
12:43:31.388,,-667,-131,1365
12:43:31.398,,-602,-335,1989
12:43:31.408,,-466,-396,1998
12:43:31.418,,-435,-458,1998
12:43:31.428,,-544,-476,1998
12:43:31.438,>Gesture,,,
12:43:31.439,,-604,-463,1998
12:43:31.448,,-577,-389,1998
12:43:31.458,,-669,-375,1998
12:43:31.468,,-695,-285,1998
12:43:31.478,,-625,-219,1998
12:43:31.488,,-553,-220,1998
12:43:31.498,,-438,-147,1970
12:43:31.508,,-285,-139,1901
12:43:31.518,,-196,-232,1815
12:43:31.528,,35,-408,1871
12:43:31.538,,-17,-425,1840
12:43:31.548,,-211,-577,1686
12:43:31.558,,-415,-620,1491
12:43:31.568,,-458,-514,1215
12:43:31.578,,-408,-419,948
12:43:31.588,,-290,-393,734
12:43:31.598,,-118,-274,614
12:43:31.608,,154,-147,696
12:43:31.618,,207,-174,723
12:43:31.628,,44,-242,639
12:43:31.638,,-119,-292,573
12:43:31.648,,-273,-367,475
12:43:31.658,,-329,-447,215
12:43:31.668,,-279,-431,64
12:43:31.678,,-179,-226,-153
12:43:31.688,,-59,-41,-346
12:43:31.698,,104,10,-570
12:43:31.708,,135,69,-822
12:43:31.718,,81,102,-1170
12:43:31.728,,49,23,-1460
12:43:31.738,,112,-115,-1600
12:43:31.748,,229,-259,-1459
12:43:31.758,,176,-305,-1253
12:43:31.768,,71,-301,-1047
12:43:31.778,,6,-315,-731
12:43:31.788,,-52,-203,-582
12:43:31.798,,-73,-182,-539
12:43:31.808,,-134,-142,-664
12:43:31.818,,-174,-88,-896
12:43:31.828,,-213,-37,-1107
12:43:31.838,,-263,-50,-1291
12:43:31.848,,-356,-105,-1427
12:43:31.858,,-497,-129,-1480
12:43:31.868,,-590,-139,-1512
12:43:31.878,,-731,-155,-1535
12:43:31.888,,-892,-162,-1617
12:43:31.898,,-859,-19,-1844
12:43:31.908,,-909,50,-1993
12:43:31.918,,-1103,7,-1997
12:43:31.928,,-1012,13,-1994
12:43:31.938,,-892,66,-1974
12:43:31.948,,-742,122,-1889
12:43:31.958,,-598,119,-1730
12:43:31.968,,-520,86,-1612
12:43:31.978,,-486,61,-1460
12:43:31.988,,-456,-3,-1212
12:43:31.998,,-389,-61,-1019
12:43:32.008,,-328,-43,-882
12:43:32.018,,-261,-54,-744
12:43:32.028,,-235,-70,-547
12:43:32.038,,-223,-73,-185
12:43:32.048,,-372,-70,22
12:43:32.058,,-453,-16,198
12:43:32.068,,-550,-8,379
12:43:32.078,,-584,-14,547
12:43:32.088,,-638,-96,674
12:43:32.098,,-856,-147,737
12:43:32.108,,-993,-179,780
12:43:32.118,,-1031,-265,827
12:43:32.128,,-1130,-260,839
12:43:32.138,,-1131,-182,943
12:43:32.148,,-1080,-177,1288
12:43:32.158,,-1011,-160,1745
12:43:32.168,,-575,-56,1991
12:43:32.178,,-584,-87,1993
12:43:32.188,,-512,-109,1998
12:43:32.198,,-431,-207,1998
12:43:32.208,,-331,-266,1998
12:43:32.218,,-184,-228,1998
12:43:32.228,,-166,-264,1998
12:43:32.238,,-213,-267,1998
12:43:32.248,,-272,-317,1998
12:43:32.258,,-370,-325,1998
12:43:32.268,,-538,-317,1998
12:43:32.278,,-715,-290,1940
12:43:32.288,,-744,-302,1644
12:43:32.298,,-354,-325,1762
12:43:32.308,,-135,-307,1950
12:43:32.318,,47,-320,1998
12:43:32.328,,96,-311,1998
12:43:32.338,,-73,-359,1998
12:43:32.348,,-202,-348,1971
12:43:32.358,,-368,-300,1679
12:43:32.368,,-505,-341,1441
12:43:32.378,,-557,-395,1264
12:43:32.388,,-513,-320,1072
12:43:32.398,,-316,-388,1114
12:43:32.408,,-218,-373,1133
12:43:32.418,,-133,-266,1152
12:43:32.428,,-150,-317,1009
12:43:32.438,,-303,-320,890
12:43:32.448,,-401,-269,819
12:43:32.458,,-485,-197,628
12:43:32.468,,-420,-164,469
12:43:32.478,,-377,-89,297
12:43:32.488,,-376,-17,72
12:43:32.498,,-363,43,-137
12:43:32.508,,-339,65,-370
12:43:32.518,,-249,72,-629
12:43:32.528,,-220,75,-962
12:43:32.538,,-283,-24,-1356
12:43:32.548,,-263,-152,-1541
12:43:32.558,,-247,-244,-1566
12:43:32.568,,-222,-275,-1509
12:43:32.578,,-156,-265,-1329
12:43:32.588,,-197,-283,-1164
12:43:32.598,,-280,-203,-965
12:43:32.608,,-257,-44,-799
12:43:32.618,,-260,31,-792
12:43:32.628,,-301,56,-928
12:43:32.638,,-416,89,-1222
12:43:32.648,,-516,106,-1463
12:43:32.658,,-561,114,-1598
12:43:32.668,,-638,83,-1657
12:43:32.678,,-747,10,-1660
12:43:32.688,,-834,2,-1665
12:43:32.698,,-840,43,-1700
12:43:32.708,,-840,118,-1748
12:43:32.718,,-819,149,-1814
12:43:32.728,,-766,138,-1828
12:43:32.738,,-674,202,-1866
12:43:32.748,,-630,221,-1861
12:43:32.894,,-987,-172,683
12:43:32.895,,-987,-172,683
12:43:32.896,,-987,-172,683
12:43:32.898,,-987,-172,683
12:43:32.899,,-987,-172,683
12:43:32.900,,-987,-172,683
12:43:32.902,,-1149,-230,896
12:43:32.903,,-1149,-230,896
12:43:32.904,,-1149,-230,896
12:43:32.906,,-1149,-230,896
12:43:32.907,,-1149,-230,896
12:43:32.909,,-1149,-230,896
12:43:32.910,,-1149,-230,896
12:43:32.911,,-1241,-254,1079
12:43:32.913,,-1241,-254,1079
12:43:32.914,,-1241,-254,1079
12:43:32.918,,-1241,-254,1079
12:43:32.928,,-1015,-207,1296
12:43:32.938,,-885,-311,1726
12:43:32.948,,-694,-382,1541
12:43:32.958,,-739,-365,1456
12:43:32.968,,-737,-327,1619
12:43:32.978,,-665,-351,1891
12:43:32.988,,-638,-409,1998
12:43:32.998,,-536,-423,1998
12:43:33.008,,-211,-240,1998
12:43:33.018,,87,-163,1998
12:43:33.028,,65,-238,1998
12:43:33.038,,-88,-263,1998
12:43:33.048,,-310,-232,1998
12:43:33.058,,-525,-296,1979
12:43:33.068,,-693,-516,1461
12:43:33.078,,-586,-592,1487
12:43:33.088,,-362,-668,1744
12:43:33.098,,-185,-694,1983
12:43:33.108,,-104,-686,1998
12:43:33.118,,-73,-629,1998
12:43:33.128,,-240,-508,1998
12:43:33.138,,-594,-358,1908
12:43:33.148,,-649,-272,1447
12:43:33.158,,-556,-232,996
12:43:33.168,,-374,-347,849
12:43:33.178,,-256,-441,872
12:43:33.188,,-215,-490,1030
12:43:33.198,,-64,-460,1288
12:43:33.208,,-137,-428,1262
12:43:33.218,,-267,-374,1045
12:43:33.228,,-257,-179,968
12:43:33.238,,-439,-126,841
12:43:33.248,,-658,-199,667
12:43:33.258,,-842,-315,222
12:43:33.268,,-750,-251,55
12:43:33.278,,-524,-154,60
12:43:33.288,,-410,-91,-24
12:43:33.298,,-331,20,-176
12:43:33.308,,-343,80,-487
12:43:33.318,,-335,78,-1394
12:43:33.328,,-248,-36,-1716
12:43:33.338,,-129,-136,-1924
12:43:33.348,,-89,-171,-1965
12:43:33.358,,-93,-138,-1774
12:43:33.368,,-73,-78,-1443
12:43:33.378,,-22,-23,-1105
12:43:33.388,,-25,30,-784
12:43:33.398,,-41,98,-590
12:43:33.408,,-70,190,-701
12:43:33.418,,-114,269,-988
12:43:33.428,,-150,355,-1298
12:43:33.438,,-223,373,-1586
12:43:33.448,,-352,294,-1902
12:43:33.458,,-604,228,-1932
12:43:33.468,,-690,178,-1943
12:43:33.478,,-770,188,-1950
12:43:33.488,,-793,225,-1900
12:43:33.498,,-763,202,-1759
12:43:33.508,,-684,255,-1737
12:43:33.518,,-591,252,-1781
12:43:33.528,,-506,301,-1751
12:43:33.538,,-434,362,-1784
12:43:33.548,,-352,345,-1713
12:43:33.558,,-317,291,-1502
12:43:33.568,,-280,177,-1253
12:43:33.578,,-370,50,-692
12:43:33.588,,-450,36,-452
12:43:33.598,,-519,-45,-165
12:43:33.608,,-591,-110,69
12:43:33.618,,-646,-173,236
12:43:33.628,,-759,-223,359
12:43:33.638,,-822,-191,380
12:43:33.648,,-996,-225,465
12:43:33.658,,-1144,-221,625
12:43:33.668,,-1283,-266,762
12:43:33.678,,-1325,-216,923
12:43:33.688,,-1275,-186,1112
12:43:33.698,,-1320,-192,1396
12:43:33.708,,-633,-196,1998
12:43:33.718,,-454,-278,1998
12:43:33.728,,-590,-410,1998
12:43:33.738,,-645,-496,1998
12:43:33.748,,-639,-545,1998
12:43:33.758,,-533,-449,1998
12:43:33.768,,-236,-338,1998
12:43:33.778,,-140,-334,1998
12:43:33.788,,-198,-348,1998
12:43:33.798,,-314,-363,1998
12:43:33.808,,-455,-405,1998
12:43:33.818,,-549,-437,1997
12:43:33.828,,-595,-551,1904
12:43:33.838,,-696,-691,1945
12:43:33.848,,-597,-724,1945
12:43:33.858,,-401,-668,1998
12:43:33.868,,-222,-517,1998
12:43:33.878,,-164,-458,1998
12:43:33.888,,-138,-475,1998
12:43:33.898,,-284,-449,1981
12:43:33.908,,-426,-372,1731
12:43:33.918,,-506,-369,1421
12:43:33.928,,-538,-459,1192
12:43:33.938,,-525,-471,1079
12:43:33.948,,-344,-436,1181
12:43:33.958,,-223,-461,1348
12:43:33.968,,-170,-385,1431
12:43:33.978,,-419,-411,1234
12:43:33.988,,-663,-440,926
12:43:33.998,,-753,-431,683
12:43:34.008,,-776,-401,476
12:43:34.018,,-683,-306,410
12:43:34.028,,-534,-149,479
12:43:34.038,,-495,-101,510
12:43:34.048,,-579,-70,386
12:43:34.058,,-764,16,152
12:43:34.068,,-784,119,-172
12:43:34.078,,-765,174,-604
12:43:34.088,,-780,191,-1363
12:43:34.098,,-548,126,-1598
12:43:34.108,,-432,26,-1672
12:43:34.118,,-381,-42,-1525
12:43:34.128,,-471,-54,-1400
12:43:34.138,,-454,-102,-1287
12:43:34.148,,-471,-37,-1147
12:43:34.158,,-505,106,-1180
12:43:34.168,,-553,223,-1294
12:43:34.178,,-504,343,-1397
12:43:34.329,,-315,183,-1145
12:43:34.331,,-273,141,-1145
12:43:34.332,,-273,141,-1145
12:43:34.333,,-273,141,-1145
12:43:34.335,,-273,141,-1145
12:43:34.336,,-273,141,-1145
12:43:34.337,,-273,141,-1145
12:43:34.339,,-82,68,-957
12:43:34.340,,-82,68,-957
12:43:34.342,,-82,68,-957
12:43:34.343,,-82,68,-957
12:43:34.344,,-82,68,-957
12:43:34.346,,-82,68,-957
12:43:34.347,,-82,68,-957
12:43:34.348,,-22,-27,-737
12:43:34.350,,-22,-27,-737
12:43:34.351,,-22,-27,-737
12:43:34.358,,-139,6,-544
12:43:34.368,,-280,33,-277
12:43:34.378,,-490,-21,16
12:43:34.388,,-667,-54,208
12:43:34.398,,-626,-90,334
12:43:34.408,,-798,-66,448
12:43:34.418,,-976,-93,558
12:43:34.428,,-1087,-91,762
12:43:34.438,,-1171,-213,980
12:43:34.448,,-1318,-397,1036
12:43:34.458,,-1222,-217,1123
12:43:34.468,,-1365,-163,1245
12:43:34.478,,-1105,-193,1075
12:43:34.488,,-1158,-197,1275
12:43:34.498,,-960,-88,1781
12:43:34.508,,-578,12,1998
12:43:34.518,,-262,-28,1998
12:43:34.528,,-275,-207,1998
12:43:34.538,,-438,-332,1998
12:43:34.548,,-631,-362,1998
12:43:34.558,,-675,-354,1998
12:43:34.568,,-650,-410,1998
12:43:34.578,,-652,-431,1998
12:43:34.588,,-658,-388,1998
12:43:34.598,,-643,-387,1998
12:43:34.608,,-504,-370,1998
12:43:34.618,,-422,-355,1998
12:43:34.628,,-436,-391,1998
12:43:34.638,,-563,-446,1998
12:43:34.648,,-657,-419,1998
12:43:34.658,,-735,-411,1979
12:43:34.668,,-833,-342,1774
12:43:34.678,,-762,-279,1543
12:43:34.688,,-605,-242,1306
12:43:34.698,,-419,-241,1179
12:43:34.708,,-216,-238,1266
12:43:34.718,,-25,-247,1488
12:43:34.728,,64,-328,1731
12:43:34.738,,-442,-470,1497
12:43:34.748,,-656,-380,1138
12:43:34.758,,-714,-374,845
12:43:34.768,,-748,-408,580
12:43:34.778,,-574,-344,303
12:43:34.788,,-242,-202,273
12:43:34.798,,13,-143,438
12:43:34.808,,42,-172,523
12:43:34.818,,-85,-222,527
12:43:34.828,,-301,-230,455
12:43:34.838,,-445,-165,372
12:43:34.848,,-472,-143,293
12:43:34.858,,-488,-220,-82
12:43:34.868,,-564,-88,-265
12:43:34.878,,-545,9,-387
12:43:34.888,,-473,94,-503
12:43:34.898,,-416,208,-607
12:43:34.908,,-546,266,-909
12:43:34.918,,-788,303,-1401
12:43:34.928,,-600,337,-1889
12:43:34.938,,-448,417,-1997
12:43:34.948,,-503,401,-1997
12:43:34.958,,-701,286,-1997
12:43:34.968,,-889,269,-1997
12:43:34.978,,-875,296,-1979
12:43:34.988,,-817,342,-1548
12:43:34.998,,-924,398,-1497
12:43:35.008,,-919,446,-1583
12:43:35.018,,-922,460,-1767
12:43:35.028,,-912,467,-1977
12:43:35.038,,-786,467,-1997
12:43:35.048,,-673,438,-1997
12:43:35.058,,-563,427,-1997
12:43:35.068,,-410,404,-1903
12:43:35.078,,-324,323,-1617
12:43:35.088,,-320,257,-1313
12:43:35.098,,-290,201,-1006
12:43:35.108,,-214,167,-701
12:43:35.118,,-189,-16,-223
12:43:35.128,,-378,-60,-40
12:43:35.138,,-547,-60,144
12:43:35.148,,-911,-60,424
12:43:35.158,,-1004,141,633
12:43:35.168,,-903,368,911
12:43:35.178,,-855,317,1109
12:43:35.188,,-988,-13,1217
12:43:35.198,,-949,-241,1382
12:43:35.208,,-1123,-367,1418
12:43:35.218,,-1224,-513,1343
12:43:35.228,,-1468,-590,1210
12:43:35.238,,-1716,-451,1063
12:43:35.248,,-1203,-97,1783
12:43:35.258,,-961,-29,1998
12:43:35.268,,-600,68,1998
12:43:35.278,,-273,122,1998
12:43:35.288,,-153,144,1998
12:43:35.298,,-60,140,1998
12:43:35.308,,-47,59,1998
12:43:35.318,,-350,2,1998
12:43:35.328,,-587,-81,1998
12:43:35.338,,-723,-188,1983
12:43:35.348,,-794,-290,1780
12:43:35.358,,-773,-386,1644
12:43:35.368,,-730,-504,1605
12:43:35.378,,-396,-544,1984
12:43:35.388,,-308,-564,1998
12:43:35.398,,-398,-626,1998
12:43:35.408,,-643,-574,1978
12:43:35.418,,-847,-543,1600
12:43:35.428,,-918,-423,1206
12:43:35.438,,-812,-406,980
12:43:35.448,,-617,-484,895
12:43:35.458,,-395,-531,918
12:43:35.468,,-187,-655,1016
12:43:35.478,,-7,-662,1150
12:43:35.488,,17,-652,1136
12:43:35.498,,-27,-664,794
12:43:35.508,,-391,-604,548
12:43:35.518,,-323,-595,348
12:43:35.528,,-182,-572,189
12:43:35.538,,-68,-474,36
12:43:35.548,,52,-322,-118
12:43:35.558,,159,-197,-228
12:43:35.568,,261,-53,-352
12:43:35.578,,283,91,-420
12:43:35.588,,332,279,-500
12:43:35.598,,400,455,-533
12:43:35.608,,477,590,-474
12:43:35.618,,459,685,-385
12:43:35.628,,304,870,-646
12:43:35.638,,558,1531,-856
12:43:35.784,,-364,524,-476
12:43:35.786,,-364,524,-316
12:43:35.787,,-400,372,-316
12:43:35.788,,-400,372,-316
12:43:35.790,,-400,372,-316
12:43:35.791,,-400,372,-316
12:43:35.792,,-400,372,-316
12:43:35.794,,-400,372,-316
12:43:35.795,,-433,219,-175
12:43:35.796,,-433,219,-175
12:43:35.798,,-433,219,-175
12:43:35.799,,-433,219,-175
12:43:35.801,,-433,219,-175
12:43:35.802,,-433,219,-175
12:43:35.803,,-433,219,-175
12:43:35.805,,-468,109,-39
12:43:35.808,,-468,109,-39
12:43:35.818,,-513,38,50
12:43:35.828,,-579,-66,131
12:43:35.838,,-627,-127,301
12:43:35.848,,-669,-253,481
12:43:35.858,,-727,-382,559
12:43:35.868,,-712,-398,652
12:43:35.878,,-665,-497,701
12:43:35.888,,-789,-789,711
12:43:35.898,,-848,-960,817
12:43:35.908,,-891,-1175,878
12:43:35.918,,-1010,-1541,853
12:43:35.928,,-1240,-1904,809
12:43:35.938,,-1398,-1998,708
12:43:35.948,,-1471,-1998,611
12:43:35.958,,-1661,-1998,395
12:43:35.968,,-1836,-1998,171
12:43:35.978,,-1964,-1998,-23
12:43:35.988,,-1998,-1998,-194
12:43:35.998,,-1998,-1998,-358
12:43:36.008,,-1998,-1998,-419
12:43:36.018,,-1998,-1998,-38
12:43:36.028,,-1982,-1998,347
12:43:36.038,,-1844,-1998,633
12:43:36.048,,-1692,-1867,753
12:43:36.058,,-1556,-1588,784
12:43:36.068,,-1441,-1412,768
12:43:36.078,,-1383,-1252,690
12:43:36.088,,-1280,-1009,583
12:43:36.098,,-1094,-685,298
12:43:36.108,,-1301,-917,225
12:43:36.118,,-1104,-777,465
12:43:36.128,,-1126,-792,381
12:43:36.138,,-992,-599,411
12:43:36.148,,-849,-342,470
12:43:36.158,,-848,-379,359
12:43:36.168,,-878,-315,247
12:43:36.178,,-868,-214,148
12:43:36.188,,-776,-91,57
12:43:36.198,,-670,-54,80
12:43:36.208,,-587,-137,269
12:43:36.218,,-579,-245,438
12:43:36.228,,-662,-291,552
12:43:36.238,,-713,-210,462
12:43:36.248,,-744,-105,151
12:43:36.258,,-831,-23,-190
12:43:36.268,,-925,103,-629
12:43:36.278,,-1063,293,-587
12:43:36.288,,-1030,384,-538
12:43:36.298,,-1056,442,-486
12:43:36.308,,-1240,450,-426
12:43:36.318,,-1436,657,-341
12:43:36.328,,-1514,914,-436
12:43:36.338,,-1606,1314,-751
12:43:36.348,,-1712,1751,-1141
12:43:36.358,,-1833,1996,-1519
12:43:36.368,,-1783,1997,-1675
12:43:36.378,,-1620,1997,-1453
12:43:36.388,,-1526,1997,-1116
12:43:36.398,,-1434,1997,-526
12:43:36.408,,-1076,1997,-399
12:43:36.418,,-764,1997,-450
12:43:36.428,,-544,1997,-599
12:43:36.438,,-358,1997,-628
12:43:36.448,,-177,1997,-589
12:43:36.458,,-143,1997,-709
12:43:36.468,,-296,1997,-887
12:43:36.478,,-474,1997,-1128
12:43:36.488,,-649,1997,-1347
12:43:36.498,,-763,1997,-1507
12:43:36.508,,-755,1948,-1547
12:43:36.518,,-709,1729,-1487
12:43:36.528,,-657,1280,-1195
12:43:36.538,,-542,1057,-1002
12:43:36.548,,-488,938,-818
12:43:36.558,,-496,925,-730
12:43:36.568,,-457,977,-812
12:43:36.578,,-395,1149,-856
12:43:36.588,,-385,1230,-925
12:43:36.598,,-397,1241,-980
12:43:36.608,,-412,1193,-978
12:43:36.618,,-483,1068,-913
12:43:36.628,,-554,981,-752
12:43:36.638,,-567,886,-582
12:43:36.648,,-650,753,-491
12:43:36.658,,-711,565,-408
12:43:36.668,,-716,606,-327
12:43:36.678,,-759,557,-313
12:43:36.688,,-848,461,-373
12:43:36.698,,-895,393,-406
12:43:36.708,,-951,346,-454
12:43:36.718,,-1098,356,-447
12:43:36.728,,-1212,255,-408
12:43:36.738,,-1343,159,-322
12:43:36.748,,-1326,135,-172
12:43:36.758,,-1332,123,-62
12:43:36.768,,-1317,104,-30
12:43:36.778,,-1403,-55,-49
12:43:36.788,,-1628,-538,61
12:43:36.798,,-1587,-850,161
12:43:36.808,,-1591,-1116,271
12:43:36.818,,-1512,-1246,368
12:43:36.828,,-1452,-1414,415
12:43:36.838,,-1467,-1622,384
12:43:36.848,,-1433,-1726,320
12:43:36.858,,-1393,-1810,294
12:43:36.868,,-1403,-1961,269
12:43:36.878,,-1471,-1998,210
12:43:36.888,,-1566,-1998,109
12:43:36.898,,-1698,-1998,5
12:43:36.908,,-1863,-1998,-24
12:43:36.918,,-1911,-1998,226
12:43:36.928,,-1912,-1998,292
12:43:36.938,,-1703,-1998,310
12:43:36.948,,-1546,-1998,312
12:43:36.958,,-1410,-1998,319
12:43:36.968,,-1220,-1911,356
12:43:36.978,,-1064,-1693,407
12:43:36.988,,-956,-1539,454
12:43:36.998,,-900,-1466,512
12:43:37.008,,-881,-1404,536
12:43:37.018,,-900,-1304,500
12:43:37.028,,-944,-1157,399
12:43:37.038,,-926,-1000,319
12:43:37.048,,-789,-679,391
12:43:37.058,,-783,-553,351
12:43:37.204,,-861,1063,-969
12:43:37.206,,-917,1276,-1089
12:43:37.207,,-917,1276,-1089
12:43:37.209,,-917,1276,-1089
12:43:37.210,,-917,1276,-1089
12:43:37.211,,-917,1276,-1089
12:43:37.213,,-917,1276,-1089
12:43:37.214,,-917,1276,-1123
12:43:37.215,,-889,1560,-1123
12:43:37.217,,-889,1560,-1123
12:43:37.218,,-889,1560,-1123
12:43:37.220,,-889,1560,-1123
12:43:37.221,,-889,1560,-1123
12:43:37.222,,-889,1560,-1123
12:43:37.224,,-812,1752,-1046
12:43:37.225,,-812,1752,-1046
12:43:37.228,,-812,1752,-1046
12:43:37.238,,-745,1773,-925
12:43:37.248,,-750,1734,-746
12:43:37.258,,-755,1813,-530
12:43:37.268,,-587,1915,-416
12:43:37.278,,-439,1964,-457
12:43:37.288,,-363,1996,-610
12:43:37.298,,-232,1997,-777
12:43:37.308,,-249,1997,-732
12:43:37.318,,-160,1997,-762
12:43:37.328,,-81,1997,-943
12:43:37.338,,-88,1997,-829
12:43:37.348,,-90,1997,-885
12:43:37.358,,23,1997,-756
12:43:37.368,,92,1986,-664
12:43:37.378,,119,1900,-743
12:43:37.388,,165,1883,-906
12:43:37.398,,152,1826,-991
12:43:37.408,,98,1784,-965
12:43:37.418,,62,1746,-904
12:43:37.428,,-64,1539,-673
12:43:37.438,,-119,1518,-606
12:43:37.448,,-240,1543,-639
12:43:37.458,,-395,1608,-756
12:43:37.468,,-571,1634,-891
12:43:37.478,,-796,1506,-972
12:43:37.488,,-1018,1339,-958
12:43:37.498,,-1126,1160,-864
12:43:37.508,,-1049,976,-741
12:43:37.518,,-862,874,-638
12:43:37.528,,-749,887,-523
12:43:37.538,,-706,876,-462
12:43:37.548,,-812,773,-491
12:43:37.558,,-1049,532,-586
12:43:37.568,,-1082,465,-553
12:43:37.578,,-1130,475,-547
12:43:37.588,,-1156,396,-605
12:43:37.598,,-1297,211,-706
12:43:37.608,,-1311,52,-728
12:43:37.618,,-1244,-141,-577
12:43:37.628,,-1228,-359,-386
12:43:37.638,,-1261,-584,-260
12:43:37.648,,-1244,-828,-165
12:43:37.658,,-1205,-1047,-85
12:43:37.668,,-1195,-1248,-51
12:43:37.678,,-1224,-1440,-52
12:43:37.688,,-1142,-1629,27
12:43:37.698,,-1055,-1674,56
12:43:37.708,,-1012,-1741,28
12:43:37.718,,-1016,-1774,-66
12:43:37.728,,-1019,-1865,-198
12:43:37.738,,-1131,-1995,-300
12:43:37.748,,-1242,-1998,-368
12:43:37.758,,-1341,-1998,-341
12:43:37.768,,-1393,-1998,-299
12:43:37.778,,-1409,-1998,-191
12:43:37.788,,-1364,-1998,-183
12:43:37.798,,-1264,-1998,-61
12:43:37.808,,-1181,-1998,196
12:43:37.818,,-1085,-1998,136
12:43:37.828,,-1079,-1998,-27
12:43:37.838,,-1103,-1916,-179
12:43:37.848,,-1123,-1785,-286
12:43:37.858,,-1136,-1673,-368
12:43:37.868,,-1162,-1561,-388
12:43:37.878,,-1139,-1406,-298
12:43:37.888,,-1075,-1235,-105
12:43:37.898,,-992,-1038,24
12:43:37.908,,-883,-789,104
12:43:37.918,,-746,-541,215
12:43:37.928,,-612,-371,255
12:43:37.938,,-540,-126,140
12:43:37.948,,-416,-19,40
12:43:37.958,,-352,37,-61
12:43:37.968,,-313,30,-157
12:43:37.978,,-330,34,-207
12:43:37.988,,-379,55,-204
12:43:37.998,,-391,102,-210
12:43:38.008,,-420,164,-220
12:43:38.018,,-490,229,-270
12:43:38.028,,-600,292,-313
12:43:38.038,,-688,392,-312
12:43:38.048,,-729,545,-304
12:43:38.058,,-746,671,-322
12:43:38.068,,-686,806,-535
12:43:38.078,,-708,837,-672
12:43:38.088,,-743,863,-689
12:43:38.098,,-740,892,-571
12:43:38.108,,-726,979,-468
12:43:38.118,,-708,1157,-504
12:43:38.128,,-771,1359,-740
12:43:38.138,,-941,1593,-967
12:43:38.148,,-1021,1871,-1095
12:43:38.158,,-1060,1997,-1099
12:43:38.168,,-1031,1997,-1110
12:43:38.178,,-941,1997,-1130
12:43:38.188,,-867,1997,-1084
12:43:38.198,,-637,1997,-993
12:43:38.208,,-516,1997,-996
12:43:38.218,,-495,1997,-1005
12:43:38.228,,-481,1997,-1008
12:43:38.238,,-451,1997,-1068
12:43:38.248,,-452,1997,-1187
12:43:38.258,,-568,1997,-1355
12:43:38.268,,-653,1997,-1430
12:43:38.278,,-686,1991,-1473
12:43:38.288,,-720,1900,-1496
12:43:38.298,,-659,1836,-1605
12:43:38.308,,-558,1794,-1562
12:43:38.318,,-556,1722,-1348
12:43:38.328,,-478,1341,-959
12:43:38.338,,-353,1222,-833
12:43:38.348,,-251,1144,-744
12:43:38.358,,-160,1129,-726
12:43:38.368,,-78,1233,-746
12:43:38.378,,-50,1291,-733
12:43:38.388,,-72,1241,-679
12:43:38.398,,-185,1162,-571
12:43:38.408,,-343,1075,-485
12:43:38.418,,-341,949,-426
12:43:38.428,,-265,806,-368
12:43:38.438,,-119,754,-362
12:43:38.448,,33,881,-438
12:43:38.458,,-6,942,-373
12:43:38.604,,-1134,-859,179
12:43:38.605,,-1134,-859,179
12:43:38.607,,-1260,-1041,175
12:43:38.608,,-1260,-1041,175
12:43:38.609,,-1260,-1041,175
12:43:38.611,,-1260,-1041,175
12:43:38.612,,-1260,-1041,175
12:43:38.613,,-1260,-1041,175
12:43:38.615,,-1260,-1261,139
12:43:38.616,,-1421,-1261,139
12:43:38.618,,-1421,-1261,139
12:43:38.619,,-1421,-1261,139
12:43:38.620,,-1421,-1261,139
12:43:38.622,,-1421,-1261,139
12:43:38.623,,-1421,-1261,139
12:43:38.624,,-1546,-1463,123
12:43:38.628,,-1546,-1463,123
12:43:38.638,,-1628,-1577,48
12:43:38.648,,-1758,-1766,-116
12:43:38.658,,-1926,-1963,-343
12:43:38.668,,-1998,-1998,-521
12:43:38.678,,-1998,-1998,-629
12:43:38.688,,-1998,-1998,-673
12:43:38.698,,-1998,-1998,-759
12:43:38.708,,-1998,-1998,-769
12:43:38.718,,-1998,-1998,-633
12:43:38.728,,-1998,-1998,-455
12:43:38.738,,-1998,-1998,-289
12:43:38.748,,-1998,-1998,-156
12:43:38.758,,-1928,-1947,-106
12:43:38.768,,-1800,-1760,-114
12:43:38.778,,-1739,-1577,-96
12:43:38.788,,-1662,-1352,-28
12:43:38.798,,-1588,-1101,150
12:43:38.808,,-1522,-937,316
12:43:38.818,,-1499,-782,466
12:43:38.828,,-1374,-615,550
12:43:38.838,,-1128,-373,510
12:43:38.848,,-1307,-495,409
12:43:38.858,,-1108,-208,470
12:43:38.868,,-982,-45,388
12:43:38.878,,-1040,151,371
12:43:38.888,,-1061,303,443
12:43:38.898,,-1053,376,554
12:43:38.908,,-1040,581,688
12:43:38.918,,-901,1065,851
12:43:38.928,,-638,1497,1008
12:43:38.938,,-301,1665,998
12:43:38.948,,-106,1531,791
12:43:38.958,,-149,1284,526
12:43:38.968,,-404,908,-52
12:43:38.978,,-335,836,-350
12:43:38.988,,-387,818,-447
12:43:38.998,,-615,1012,-346
12:43:39.008,,-638,1356,-274
12:43:39.018,,-607,1871,-280
12:43:39.028,,-455,1997,-418
12:43:39.038,,-172,1997,-722
12:43:39.048,,-79,1997,-1150
12:43:39.058,,-133,1997,-1383
12:43:39.068,,-169,1997,-1509
12:43:39.078,,-166,1997,-1553
12:43:39.088,,-226,1997,-1584
12:43:39.098,,-262,1997,-1453
12:43:39.108,,-275,1997,-1325
12:43:39.118,,-106,1997,-1015
12:43:39.128,,96,1997,-790
12:43:39.138,,133,1997,-778
12:43:39.148,,60,1997,-1031
12:43:39.158,,-146,1997,-1433
12:43:39.168,,-338,1997,-1761
12:43:39.178,,-494,1997,-1875
12:43:39.188,,-673,1997,-1843
12:43:39.198,,-880,1994,-1782
12:43:39.208,,-827,1968,-1409
12:43:39.218,,-613,1840,-431
12:43:39.228,,-359,1336,-7
12:43:39.238,,-242,1180,257
12:43:39.248,,-164,1106,228
12:43:39.258,,-96,1196,27
12:43:39.268,,-41,1064,-90
12:43:39.278,,-36,799,-66
12:43:39.288,,-66,663,-32
12:43:39.298,,-129,519,85
12:43:39.308,,-267,346,173
12:43:39.318,,-349,203,197
12:43:39.328,,-530,93,177
12:43:39.338,,-750,-93,82
12:43:39.348,,-964,-288,-277
12:43:39.358,,-1385,-681,-594
12:43:39.368,,-1594,-823,-966
12:43:39.378,,-1716,-995,-1289
12:43:39.388,,-1765,-1087,-1447
12:43:39.398,,-1729,-1116,-1420
12:43:39.408,,-1756,-1125,-1369
12:43:39.418,,-1781,-1099,-1425
12:43:39.428,,-1759,-1011,-1517
12:43:39.438,,-1744,-887,-1600
12:43:39.448,,-1737,-733,-1673
12:43:39.458,,-1662,-579,-1713
12:43:39.468,,-1497,-424,-1732
12:43:39.478,,-1376,-223,-1565
12:43:39.488,,-1313,-111,-1374
12:43:39.498,,-1246,-13,-1152
12:43:39.508,,-1180,40,-977
12:43:39.518,,-1086,80,-779
12:43:39.528,,-992,63,-558
12:43:39.538,,-1001,20,-321
12:43:39.547,,-971,76,-101
12:43:39.558,,-944,141,80
12:43:39.568,,-976,138,223
12:43:39.577,,-1071,123,368
12:43:39.588,,-1145,160,479
12:43:39.598,,-1202,147,596
12:43:39.607,,-1458,295,853
12:43:39.617,,-1415,438,1073
12:43:39.628,,-1300,414,1285
12:43:39.637,,-1201,315,1419
12:43:39.647,,-1259,189,1529
12:43:39.658,,-1184,149,1576
12:43:39.667,,-1192,106,1617
12:43:39.677,,-1173,169,1894
12:43:39.687,,-848,244,1998
12:43:39.697,,-715,184,1998
12:43:39.707,,-790,158,1998
12:43:39.717,,-776,234,1998
12:43:39.727,,-665,268,1998
12:43:39.737,,-692,283,1998
12:43:39.747,,-738,280,1998
12:43:39.757,,-879,229,1998
12:43:39.767,,-898,194,1998
12:43:39.777,,-881,151,1998
12:43:39.787,,-784,120,1998
12:43:39.797,,-675,63,1998
12:43:39.807,,-679,-29,1998
12:43:39.817,,-757,-130,1998
12:43:39.827,,-841,-219,1998
12:43:39.837,,-905,-275,1998
12:43:39.847,,-878,-317,1998
12:43:39.857,,-806,-328,1998
12:43:39.867,,-476,-265,1998
12:43:40.015,,-366,-104,504
12:43:40.016,,-302,-177,671
12:43:40.018,,-302,-177,671
12:43:40.019,,-302,-177,671
12:43:40.020,,-302,-177,671
12:43:40.022,,-302,-177,671
12:43:40.023,,-302,-177,671
12:43:40.024,,-302,-177,671
12:43:40.026,,-277,-279,909
12:43:40.027,,-277,-279,909
12:43:40.029,,-277,-279,909
12:43:40.030,,-277,-279,909
12:43:40.031,,-277,-279,909
12:43:40.033,,-277,-279,909
12:43:40.034,,-277,-342,870
12:43:40.035,,-362,-342,870
12:43:40.037,,-362,-342,870
12:43:40.047,,-430,-244,830
12:43:40.057,,-438,-47,969
12:43:40.067,,-458,158,1112
12:43:40.077,,-609,331,1055
12:43:40.087,,-900,389,788
12:43:40.097,,-1105,375,437
12:43:40.107,,-1065,469,132
12:43:40.117,,-1106,496,-837
12:43:40.127,,-1282,475,-1457
12:43:40.137,,-1114,443,-1906
12:43:40.147,,-1110,312,-1997
12:43:40.157,,-1220,200,-1997
12:43:40.167,,-1288,159,-1993
12:43:40.177,,-1383,206,-1794
12:43:40.187,,-1466,287,-1593
12:43:40.197,,-1597,338,-1496
12:43:40.207,,-1559,365,-1567
12:43:40.217,,-1493,385,-1749
12:43:40.227,,-1478,382,-1949
12:43:40.237,,-1434,409,-1997
12:43:40.247,,-1120,537,-1997
12:43:40.257,,-958,520,-1945
12:43:40.267,,-870,458,-1799
12:43:40.277,,-860,371,-1672
12:43:40.287,,-814,298,-1734
12:43:40.297,,-930,149,-1796
12:43:40.307,,-1036,16,-1733
12:43:40.317,,-1046,-97,-1636
12:43:40.327,,-1021,-199,-1524
12:43:40.337,,-929,-184,-1415
12:43:40.347,,-839,-58,-1325
12:43:40.357,,-842,26,-1189
12:43:40.367,,-899,59,-1011
12:43:40.377,,-1001,154,-670
12:43:40.387,,-886,165,-431
12:43:40.397,,-784,112,-193
12:43:40.407,,-753,87,-15
12:43:40.417,,-879,84,114
12:43:40.427,,-1050,102,200
12:43:40.437,,-1104,139,308
12:43:40.447,,-1236,186,528
12:43:40.457,,-1296,350,688
12:43:40.467,,-1263,532,923
12:43:40.477,,-1200,501,1213
12:43:40.487,,-1201,296,1428
12:43:40.497,,-1345,165,1518
12:43:40.507,,-1650,49,1468
12:43:40.517,,-1628,60,1455
12:43:40.527,,-1614,79,1572
12:43:40.537,,-1477,252,1876
12:43:40.547,,-1027,423,1998
12:43:40.557,,-639,450,1998
12:43:40.567,,-463,465,1998
12:43:40.577,,-477,445,1998
12:43:40.587,,-734,294,1998
12:43:40.597,,-1042,152,1998
12:43:40.607,,-1296,66,1998
12:43:40.617,,-1422,-10,1998
12:43:40.627,,-1364,-105,1998
12:43:40.637,,-1181,-134,1998
12:43:40.647,,-1083,-83,1998
12:43:40.657,,-957,23,1998
12:43:40.667,,-899,35,1998
12:43:40.677,,-951,0,1998
12:43:40.687,,-1071,-35,1998
12:43:40.697,,-1278,-94,1998
12:43:40.707,,-1316,-157,1915
12:43:40.717,,-1241,-269,1725
12:43:40.727,,-1150,-388,1746
12:43:40.737,,-1069,-468,1849
12:43:40.747,,-955,-514,1878
12:43:40.757,,-793,-508,1998
12:43:40.767,,-633,-444,1998
12:43:40.777,,-750,-435,1948
12:43:40.787,,-902,-386,1722
12:43:40.797,,-947,-347,1453
12:43:40.807,,-965,-360,1198
12:43:40.817,,-900,-374,960
12:43:40.827,,-807,-351,793
12:43:40.837,,-738,-314,579
12:43:40.847,,-589,-274,537
12:43:40.857,,-420,-237,574
12:43:40.867,,-358,-194,600
12:43:40.877,,-298,-112,645
12:43:40.887,,-215,-133,660
12:43:40.897,,-506,-178,455
12:43:40.907,,-563,-189,268
12:43:40.917,,-533,-178,184
12:43:40.927,,-570,-156,86
12:43:40.937,,-576,-150,71
12:43:40.947,,-664,-95,33
12:43:40.957,,-713,-26,-20
12:43:40.967,,-793,32,-128
12:43:40.977,,-810,84,-186
12:43:40.987,,-870,136,-310
12:43:40.997,,-923,178,-529
12:43:41.007,,-945,261,-822
12:43:41.017,,-949,425,-1737
12:43:41.027,,-909,297,-1997
12:43:41.037,,-691,211,-1997
12:43:41.047,,-559,89,-1997
12:43:41.057,,-662,-15,-1995
12:43:41.067,,-759,-62,-1632
12:43:41.077,,-797,-94,-1129
12:43:41.087,,-794,-174,-859
12:43:41.097,,-779,-204,-790
12:43:41.107,,-802,-144,-870
12:43:41.117,,-815,-72,-1095
12:43:41.127,,-770,-35,-1288
12:43:41.137,,-773,-12,-1406
12:43:41.147,,-748,86,-1480
12:43:41.157,,-716,132,-1493
12:43:41.167,,-773,120,-1478
12:43:41.177,,-780,184,-1519
12:43:41.187,,-908,185,-1562
12:43:41.197,,-1049,197,-1603
12:43:41.207,,-1058,189,-1652
12:43:41.217,,-970,158,-1667
12:43:41.227,,-861,180,-1644
12:43:41.237,,-719,90,-1565
12:43:41.247,,-659,27,-1330
12:43:41.257,,-726,47,-1053
12:43:41.267,,-803,85,-813
12:43:41.277,,-792,57,-368
12:43:41.287,,-861,61,-135
12:43:41.297,,-964,59,72
12:43:41.307,,-1047,56,239
12:43:41.455,,-665,-232,1998
12:43:41.456,,-665,-232,1998
12:43:41.458,,-665,-232,1998
12:43:41.459,,-665,-232,1998
12:43:41.460,,-665,-232,1998
12:43:41.462,,-665,-232,1998
12:43:41.463,,-564,-143,1998
12:43:41.464,,-564,-143,1998
12:43:41.466,,-564,-143,1998
12:43:41.467,,-564,-143,1998
12:43:41.468,,-564,-143,1998
12:43:41.470,,-564,-143,1998
12:43:41.471,,-564,-143,1998
12:43:41.473,,-464,-69,1998
12:43:41.474,,-464,-69,1998
12:43:41.475,,-464,-69,1998
12:43:41.477,,-464,-69,1998
12:43:41.487,,-509,-113,1998
12:43:41.497,,-679,-215,1998
12:43:41.507,,-900,-390,1998
12:43:41.517,,-1112,-518,1998
12:43:41.527,,-1263,-688,1998
12:43:41.537,,-1395,-1074,1998
12:43:41.547,,-1463,-1129,1998
12:43:41.557,,-1240,-990,1998
12:43:41.567,,-1188,-959,1998
12:43:41.577,,-1283,-927,1891
12:43:41.587,,-1303,-856,1693
12:43:41.597,,-1262,-755,1591
12:43:41.607,,-1158,-639,1503
12:43:41.617,,-994,-504,1368
12:43:41.627,,-775,-450,1212
12:43:41.637,,-571,-388,1058
12:43:41.647,,-400,-332,976
12:43:41.657,,-330,-367,966
12:43:41.667,,-314,-408,992
12:43:41.677,,-340,-463,950
12:43:41.687,,-427,-453,834
12:43:41.697,,-552,-423,663
12:43:41.707,,-668,-327,440
12:43:41.717,,-728,-230,273
12:43:41.727,,-708,-198,188
12:43:41.737,,-652,-201,179
12:43:41.747,,-651,-252,116
12:43:41.757,,-705,-240,-16
12:43:41.767,,-838,-111,-175
12:43:41.777,,-898,20,-307
12:43:41.787,,-801,113,-382
12:43:41.797,,-734,110,-239
12:43:41.807,,-802,107,-241
12:43:41.817,,-874,44,-276
12:43:41.827,,-1063,100,-378
12:43:41.837,,-1146,336,-550
12:43:41.847,,-1080,611,-818
12:43:41.857,,-867,944,-1085
12:43:41.867,,-620,1167,-1377
12:43:41.877,,-561,1174,-1690
12:43:41.887,,-680,1011,-1828
12:43:41.897,,-856,865,-1838
12:43:41.907,,-967,671,-1690
12:43:41.917,,-1139,251,-1621
12:43:41.927,,-1342,154,-1732
12:43:41.937,,-1469,206,-1859
12:43:41.947,,-1459,254,-1992
12:43:41.957,,-1451,248,-1997
12:43:41.967,,-1422,215,-1997
12:43:41.977,,-1400,132,-1997
12:43:41.987,,-1375,46,-1950
12:43:41.997,,-1301,-10,-1759
12:43:42.007,,-1173,-75,-1683
12:43:42.017,,-1138,-115,-1717
12:43:42.027,,-1125,-92,-1682
12:43:42.037,,-1086,-84,-1604
12:43:42.047,,-1044,-90,-1334
12:43:42.057,,-939,-69,-1212
12:43:42.067,,-820,-44,-1140
12:43:42.077,,-790,-12,-1178
12:43:42.087,,-790,57,-1240
12:43:42.097,,-755,132,-1287
12:43:42.107,,-758,191,-1289
12:43:42.117,,-698,215,-1231
12:43:42.127,,-637,207,-1057
12:43:42.137,,-599,160,-778
12:43:42.147,,-637,78,-507
12:43:42.157,,-688,85,-293
12:43:42.167,,-772,98,-21
12:43:42.177,,-856,78,150
12:43:42.187,,-896,55,311
12:43:42.197,,-964,42,403
12:43:42.207,,-1226,0,503
12:43:42.217,,-1442,43,606
12:43:42.227,,-1648,27,736
12:43:42.237,,-1756,10,946
12:43:42.247,,-1738,31,1080
12:43:42.257,,-1741,77,1134
12:43:42.267,,-1844,55,1437
12:43:42.277,,-1675,6,1807
12:43:42.287,,-1364,19,1936
12:43:42.297,,-1336,-41,1757
12:43:42.307,,-1346,-31,1914
12:43:42.317,,-1193,0,1998
12:43:42.327,,-1080,-81,1998
12:43:42.337,,-1137,-246,1998
12:43:42.347,,-1294,-343,1998
12:43:42.357,,-1317,-296,1998
12:43:42.367,,-1259,-261,1998
12:43:42.377,,-1243,-210,1998
12:43:42.387,,-1194,-101,1998
12:43:42.397,,-1153,-32,1998
12:43:42.407,,-1127,-28,1998
12:43:42.417,,-1079,-59,1997
12:43:42.427,,-1073,-311,1878
12:43:42.437,,-1023,-449,1925
12:43:42.447,,-1009,-597,1985
12:43:42.457,,-930,-588,1998
12:43:42.467,,-825,-549,1998
12:43:42.477,,-819,-469,1970
12:43:42.487,,-933,-420,1725
12:43:42.497,,-832,-303,1473
12:43:42.507,,-700,-256,1276
12:43:42.517,,-515,-264,1236
12:43:42.527,,-350,-313,1263
12:43:42.537,,-266,-422,1245
12:43:42.547,,-251,-538,1246
12:43:42.557,,-351,-632,1332
12:43:42.567,,-434,-634,1260
12:43:42.577,,-542,-550,1089
12:43:42.587,,-546,-487,942
12:43:42.597,,-569,-442,791
12:43:42.607,,-577,-448,599
12:43:42.617,,-371,-376,427
12:43:42.627,,-367,-250,473
12:43:42.637,,-325,-213,590
12:43:42.647,,-245,-193,807
12:43:42.657,,-405,-182,864
12:43:42.667,,-797,-244,581
12:43:42.677,,-1141,-295,180
12:43:42.687,,-1151,-241,-223
12:43:42.697,,-956,-341,-184
12:43:42.707,,-1008,-277,-259
12:43:42.717,,-1064,-193,-463
12:43:42.727,,-1050,-76,-736
12:43:42.874,,-1042,128,-1665
12:43:42.876,,-1042,128,-1665
12:43:42.877,,-1042,128,-1665
12:43:42.878,,-1042,128,-1665
12:43:42.880,,-1042,128,-1665
12:43:42.881,,-1042,128,-1665
12:43:42.882,,-1078,6,-1732
12:43:42.884,,-1078,6,-1732
12:43:42.885,,-1078,6,-1732
12:43:42.887,,-1078,6,-1732
12:43:42.888,,-1078,6,-1732
12:43:42.889,,-1078,6,-1732
12:43:42.891,,-1078,6,-1732
12:43:42.892,,-1088,-121,-1727
12:43:42.893,,-1088,-121,-1727
12:43:42.895,,-1088,-121,-1727
12:43:42.897,,-1088,-121,-1727
12:43:42.907,,-1094,-186,-1670
12:43:42.917,,-1113,-206,-1584
12:43:42.927,,-1106,-166,-1547
12:43:42.937,,-1071,-127,-1595
12:43:42.947,,-963,-54,-1493
12:43:42.957,,-923,3,-1369
12:43:42.967,,-928,67,-1274
12:43:42.977,,-934,99,-1159
12:43:42.987,,-962,124,-931
12:43:42.997,,-937,143,-626
12:43:43.007,,-949,196,-365
12:43:43.017,,-1001,223,-186
12:43:43.027,,-962,231,-6
12:43:43.037,,-1092,229,185
12:43:43.047,,-1220,275,368
12:43:43.057,,-1306,305,615
12:43:43.067,,-1534,324,1077
12:43:43.077,,-1925,403,1361
12:43:43.087,,-1863,385,1654
12:43:43.097,,-1860,374,1737
12:43:43.107,,-1694,443,1806
12:43:43.117,,-1502,440,1980
12:43:43.127,,-1387,360,1998
12:43:43.137,,-1320,356,1978
12:43:43.147,,-1492,291,1873
12:43:43.157,,-1543,277,1966
12:43:43.167,,-1248,329,1998
12:43:43.177,,-1069,290,1998
12:43:43.187,,-1032,234,1998
12:43:43.197,,-933,306,1998
12:43:43.207,,-833,352,1998
12:43:43.217,,-839,319,1998
12:43:43.227,,-974,237,1998
12:43:43.237,,-1047,200,1998
12:43:43.247,,-1120,122,1998
12:43:43.257,,-1207,44,1998
12:43:43.267,,-1265,-18,1998
12:43:43.277,,-1236,-84,1998
12:43:43.287,,-1178,-129,1998
12:43:43.297,,-1106,-162,1998
12:43:43.307,,-1026,-222,1998
12:43:43.317,,-937,-255,1998
12:43:43.327,,-812,-353,1998
12:43:43.337,,-756,-402,1998
12:43:43.347,,-769,-436,1967
12:43:43.357,,-856,-390,1816
12:43:43.367,,-860,-363,1680
12:43:43.377,,-743,-360,1647
12:43:43.387,,-670,-358,1543
12:43:43.397,,-604,-404,1471
12:43:43.407,,-516,-404,1456
12:43:43.417,,-470,-390,1451
12:43:43.427,,-455,-357,1357
12:43:43.437,,-524,-250,1174
12:43:43.447,,-579,-176,947
12:43:43.457,,-597,-8,610
12:43:43.467,,-660,16,380
12:43:43.477,,-611,19,200
12:43:43.487,,-462,20,189
12:43:43.497,,-429,-6,200
12:43:43.507,,-397,-67,265
12:43:43.517,,-498,-140,237
12:43:43.527,,-562,-158,249
12:43:43.537,,-658,-128,272
12:43:43.547,,-800,-109,258
12:43:43.557,,-887,-56,181
12:43:43.567,,-957,16,12
12:43:43.577,,-926,108,-236
12:43:43.587,,-945,338,-1124
12:43:43.597,,-854,496,-1777
12:43:43.607,,-637,569,-1997
12:43:43.617,,-555,524,-1997
12:43:43.627,,-584,456,-1997
12:43:43.637,,-563,397,-1927
12:43:43.647,,-464,337,-1484
12:43:43.657,,-382,300,-1118
12:43:43.667,,-404,315,-993
12:43:43.677,,-444,409,-1032
12:43:43.687,,-410,555,-1153
12:43:43.697,,-298,698,-1349
12:43:43.707,,-206,834,-1616
12:43:43.717,,-17,825,-1513
12:43:43.727,,77,705,-1256
12:43:43.737,,147,653,-998
12:43:43.747,,225,622,-841
12:43:43.757,,288,511,-790
12:43:43.767,,248,361,-773
12:43:43.777,,233,251,-775
12:43:43.787,,222,127,-746
12:43:43.797,,157,-65,-594
12:43:43.807,,99,-259,-434
12:43:43.817,,-60,-423,-274
12:43:43.827,,-185,-646,-96
12:43:43.837,,-337,-1156,240
12:43:43.847,,-668,-1431,261
12:43:43.857,,-899,-1678,153
12:43:43.867,,-1078,-1801,6
12:43:43.877,,-1209,-1964,-135
12:43:43.887,,-1315,-1998,-341
12:43:43.897,,-1429,-1998,-605
12:43:43.907,,-1512,-1998,-831
12:43:43.917,,-1573,-1998,-953
12:43:43.927,,-1652,-1998,-1011
12:43:43.937,,-1698,-1998,-970
12:43:43.947,,-1662,-1998,-854
12:43:43.957,,-1547,-1986,-709
12:43:43.967,,-1257,-1620,-496
12:43:43.977,,-1186,-1417,-417
12:43:43.987,,-1127,-1257,-341
12:43:43.997,,-1094,-1182,-230
12:43:44.007,,-1050,-1141,-123
12:43:44.017,,-952,-1114,-117
12:43:44.027,,-905,-1071,-162
12:43:44.037,,-859,-1030,-222
12:43:44.047,,-820,-964,-246
12:43:44.057,,-779,-902,-217
12:43:44.067,,-704,-837,-178
12:43:44.077,,-633,-743,-165
12:43:44.087,,-593,-638,-135
12:43:44.097,,-488,-444,-38
12:43:44.107,,-504,-354,18
12:43:44.117,,-514,-202,8
12:43:44.127,,-539,-27,-57
12:43:44.137,,-577,179,-95
12:43:44.147,,-573,478,-54
12:43:44.294,,-521,1997,-1209
12:43:44.296,,-521,1997,-1209
12:43:44.297,,-521,1997,-1209
12:43:44.298,,-521,1997,-1209
12:43:44.300,,-521,1997,-1209
12:43:44.301,,-466,1965,-1176
12:43:44.303,,-466,1965,-1176
12:43:44.304,,-466,1965,-1176
12:43:44.305,,-466,1965,-1176
12:43:44.307,,-466,1965,-1176
12:43:44.308,,-466,1965,-1176
12:43:44.309,,-466,1965,-1176
12:43:44.311,,-306,1916,-1136
12:43:44.312,,-306,1916,-1136
12:43:44.314,,-306,1916,-1136
12:43:44.315,,-306,1916,-1136
12:43:44.317,,-306,1916,-1136
12:43:44.327,,-212,1885,-1047
12:43:44.337,,-295,1843,-991
12:43:44.347,,-459,1772,-1065
12:43:44.357,,-559,1663,-1290
12:43:44.367,,-552,1555,-1399
12:43:44.377,,-560,1464,-1416
12:43:44.387,,-596,1377,-1345
12:43:44.397,,-564,1290,-1291
12:43:44.407,,-397,1221,-1253
12:43:44.417,,-258,1115,-1186
12:43:44.427,,-213,1056,-1053
12:43:44.437,,-159,1021,-908
12:43:44.447,,-102,1001,-795
12:43:44.457,,-26,984,-734
12:43:44.467,,51,983,-709
12:43:44.477,,135,1013,-603
12:43:44.487,,230,1113,-515
12:43:44.497,,125,1054,-430
12:43:44.507,,55,1005,-263
12:43:44.517,,-3,915,-101
12:43:44.527,,-60,734,-22
12:43:44.537,,-117,618,29
12:43:44.547,,-179,571,46
12:43:44.557,,-358,521,60
12:43:44.567,,-536,422,69
12:43:44.577,,-689,356,45
12:43:44.587,,-860,224,-83
12:43:44.597,,-1011,126,-252
12:43:44.607,,-1117,-152,-609
12:43:44.617,,-1376,-449,-767
12:43:44.627,,-1507,-785,-916
12:43:44.637,,-1502,-1058,-1079
12:43:44.647,,-1526,-1334,-1192
12:43:44.657,,-1541,-1535,-1126
12:43:44.667,,-1526,-1764,-978
12:43:44.677,,-1533,-1965,-727
12:43:44.687,,-1489,-1998,-358
12:43:44.697,,-1471,-1998,-18
12:43:44.707,,-1482,-1998,99
12:43:44.717,,-1467,-1998,-39
12:43:44.727,,-1472,-1998,-340
12:43:44.737,,-1494,-1998,-789
12:43:44.747,,-1445,-1946,-871
12:43:44.757,,-1417,-1794,-866
12:43:44.767,,-1388,-1669,-813
12:43:44.777,,-1349,-1594,-728
12:43:44.787,,-1286,-1541,-616
12:43:44.797,,-1184,-1453,-495
12:43:44.807,,-1072,-1336,-396
12:43:44.817,,-984,-1239,-325
12:43:44.827,,-952,-1140,-309
12:43:44.837,,-918,-1046,-328
12:43:44.847,,-848,-901,-370
12:43:44.857,,-783,-751,-362
12:43:44.867,,-576,-514,-180
12:43:44.877,,-578,-408,-111
12:43:44.887,,-622,-242,-157
12:43:44.897,,-651,-53,-233
12:43:44.907,,-727,190,-254
12:43:44.917,,-793,455,-164
12:43:44.927,,-907,650,-70
12:43:44.937,,-1055,865,-53
12:43:44.947,,-1151,1146,-26
12:43:44.957,,-1220,1400,12
12:43:44.967,,-1350,1651,-11
12:43:44.977,,-1452,1942,-175
12:43:44.987,,-1440,1997,-414
12:43:44.997,,-941,1997,-1081
12:43:45.007,,-846,1997,-1426
12:43:45.017,,-776,1997,-1513
12:43:45.027,,-709,1997,-1247
12:43:45.037,,-655,1997,-932
12:43:45.047,,-528,1958,-756
12:43:45.057,,-442,1745,-713
12:43:45.067,,-354,1672,-742
12:43:45.077,,-254,1725,-849
12:43:45.087,,-218,1806,-964
12:43:45.097,,-242,1870,-1028
12:43:45.107,,-260,1857,-1077
12:43:45.117,,-250,1793,-1130
12:43:45.127,,-316,1585,-1125
12:43:45.137,,-333,1528,-1132
12:43:45.147,,-274,1457,-1150
12:43:45.157,,-172,1311,-1130
12:43:45.167,,-116,1194,-1052
12:43:45.177,,-90,1146,-958
12:43:45.187,,12,1141,-891
12:43:45.197,,94,1141,-823
12:43:45.207,,175,1149,-747
12:43:45.217,,238,1138,-634
12:43:45.227,,228,1093,-531
12:43:45.237,,220,1076,-442
12:43:45.247,,197,1000,-365
12:43:45.257,,98,752,-282
12:43:45.267,,29,641,-161
12:43:45.277,,-61,568,-60
12:43:45.287,,-216,506,-7
12:43:45.297,,-429,421,15
12:43:45.307,,-623,349,-25
12:43:45.317,,-744,309,-42
12:43:45.327,,-844,249,-71
12:43:45.337,,-998,134,-203
12:43:45.347,,-1273,22,-394
12:43:45.357,,-1460,-205,-616
12:43:45.367,,-1499,-449,-853
12:43:45.377,,-1506,-907,-1225
12:43:45.387,,-1515,-1224,-1268
12:43:45.397,,-1389,-1405,-1436
12:43:45.407,,-1199,-1405,-1553
12:43:45.417,,-1152,-1341,-1156
12:43:45.427,,-1102,-1413,-572
12:43:45.437,,-1022,-1563,-49
12:43:45.447,,-971,-1696,242
12:43:45.457,,-960,-1793,232
12:43:45.467,,-1023,-1838,-108
12:43:45.477,,-1178,-1867,-497
12:43:45.487,,-1313,-1892,-809
12:43:45.497,,-1427,-1944,-948
12:43:45.507,,-1429,-1860,-910
12:43:45.517,,-1352,-1802,-825
12:43:45.527,,-1245,-1763,-698
12:43:45.537,,-1103,-1658,-507
12:43:45.547,,-973,-1547,-340
12:43:45.700,,-1043,1378,-197
12:43:45.702,,-1155,1658,-295
12:43:45.703,,-1155,1658,-295
12:43:45.704,,-1155,1658,-295
12:43:45.706,,-1155,1658,-295
12:43:45.707,,-1155,1658,-295
12:43:45.709,,-1155,1658,-295
12:43:45.710,,-1155,1658,-295
12:43:45.711,,-1214,1939,-538
12:43:45.713,,-1214,1939,-538
12:43:45.714,,-1214,1939,-538
12:43:45.715,,-1214,1939,-538
12:43:45.717,,-1214,1939,-538
12:43:45.718,,-1214,1939,-538
12:43:45.719,,-1214,1939,-538
12:43:45.721,,-1213,1997,-882
12:43:45.722,,-1213,1997,-882
12:43:45.727,,-1213,1997,-882
12:43:45.737,,-972,1997,-1251
12:43:45.747,,-676,1997,-1597
12:43:45.757,,-610,1997,-1660
12:43:45.767,,-709,1997,-1064
12:43:45.777,,-583,1863,-758
12:43:45.787,,-285,1604,-588
12:43:45.797,,-46,1478,-635
12:43:45.807,,31,1535,-809
12:43:45.817,,47,1662,-912
12:43:45.827,,76,1722,-883
12:43:45.837,,116,1682,-808
12:43:45.847,,88,1615,-766
12:43:45.857,,148,1527,-778
12:43:45.867,,146,1449,-846
12:43:45.877,,185,1429,-967
12:43:45.887,,261,1452,-1054
12:43:45.897,,349,1240,-915
12:43:45.907,,446,1186,-706
12:43:45.917,,506,1180,-528
12:43:45.927,,471,1237,-434
12:43:45.937,,405,1301,-379
12:43:45.947,,378,1313,-359
12:43:45.957,,292,1323,-353
12:43:45.967,,155,1293,-342
12:43:45.977,,1,1229,-320
12:43:45.987,,-184,1105,-294
12:43:45.997,,-350,953,-349
12:43:46.007,,-470,925,-399
12:43:46.017,,-642,947,-612
12:43:46.027,,-1102,633,-709
12:43:46.037,,-1373,407,-870
12:43:46.047,,-1453,202,-1102
12:43:46.057,,-1394,25,-1398
12:43:46.067,,-1410,-216,-1787
12:43:46.077,,-1482,-460,-1997
12:43:46.087,,-1564,-752,-1997
12:43:46.097,,-1562,-1045,-1909
12:43:46.107,,-1276,-1273,-1296
12:43:46.117,,-970,-1503,-554
12:43:46.127,,-850,-1624,-6
12:43:46.137,,-751,-1648,281
12:43:46.147,,-528,-1780,-103
12:43:46.157,,-610,-1818,-488
12:43:46.167,,-679,-1818,-820
12:43:46.177,,-763,-1847,-984
12:43:46.187,,-812,-1881,-967
12:43:46.197,,-878,-1977,-828
12:43:46.207,,-964,-1998,-598
12:43:46.217,,-1072,-1998,-403
12:43:46.227,,-1143,-1998,-368
12:43:46.237,,-1190,-1988,-485
12:43:46.247,,-1186,-1859,-614
12:43:46.257,,-1099,-1654,-661
12:43:46.267,,-1030,-1444,-621
12:43:46.277,,-842,-1112,-624
12:43:46.287,,-745,-972,-536
12:43:46.297,,-672,-766,-414
12:43:46.307,,-570,-572,-220
12:43:46.317,,-469,-287,-108
12:43:46.327,,-465,-29,-169
12:43:46.337,,-820,106,-301
12:43:46.347,,-896,307,-312
12:43:46.357,,-784,444,-239
12:43:46.367,,-751,508,-286
12:43:46.377,,-743,599,-477
12:43:46.387,,-843,779,-594
12:43:46.397,,-946,878,-638
12:43:46.407,,-899,1221,-801
12:43:46.417,,-881,1395,-1121
12:43:46.427,,-1131,1452,-1526
12:43:46.437,,-1496,1601,-1910
12:43:46.447,,-1641,1822,-1997
12:43:46.457,,-1657,1934,-1997
12:43:46.467,,-1434,1870,-1974
12:43:46.477,,-1110,1731,-1646
12:43:46.487,,-866,1555,-1218
12:43:46.497,,-697,1438,-884
12:43:46.507,,-552,1478,-777
12:43:46.517,,-374,1582,-845
12:43:46.527,,-261,1668,-948
12:43:46.537,,-80,1702,-1097
12:43:46.547,,-53,1620,-1156
12:43:46.557,,-66,1544,-1171
12:43:46.567,,-62,1472,-1199
12:43:46.577,,10,1362,-1236
12:43:46.587,,98,1291,-1261
12:43:46.597,,167,1216,-1187
12:43:46.607,,172,1138,-1060
12:43:46.617,,213,1031,-902
12:43:46.627,,321,939,-740
12:43:46.637,,445,872,-601
12:43:46.647,,498,803,-518
12:43:46.657,,475,795,-425
12:43:46.667,,344,815,-413
12:43:46.677,,283,786,-451
12:43:46.687,,217,772,-485
12:43:46.697,,137,759,-533
12:43:46.707,,-24,756,-555
12:43:46.717,,-202,709,-598
12:43:46.727,,-391,634,-658
12:43:46.737,,-543,558,-668
12:43:46.747,,-683,464,-695
12:43:46.757,,-823,360,-715
12:43:46.767,,-922,237,-759
12:43:46.777,,-1042,73,-856
12:43:46.787,,-1103,-203,-1115
12:43:46.797,,-1092,-422,-1270
12:43:46.807,,-1134,-611,-1262
12:43:46.817,,-1115,-800,-1222
12:43:46.827,,-1100,-1047,-1213
12:43:46.837,,-1072,-1312,-1175
12:43:46.847,,-1114,-1575,-1032
12:43:46.857,,-1103,-1779,-794
12:43:46.867,,-1078,-1962,-462
12:43:46.877,,-1068,-1998,-157
12:43:46.887,,-999,-1998,1
12:43:46.897,,-902,-1998,-24
12:43:46.907,,-874,-1998,-163
12:43:46.917,,-855,-1998,-504
12:43:46.927,,-864,-1998,-585
12:43:46.937,,-881,-1998,-611
12:43:46.947,,-863,-1948,-629
12:43:47.094,,-985,856,-741
12:43:47.095,,-985,856,-741
12:43:47.097,,-985,856,-741
12:43:47.098,,-985,856,-741
12:43:47.099,,-985,856,-741
12:43:47.101,,-985,856,-741
12:43:47.102,,-985,856,-814
12:43:47.103,,-1025,904,-814
12:43:47.105,,-1025,904,-814
12:43:47.106,,-1025,904,-814
12:43:47.108,,-1025,904,-814
12:43:47.109,,-1025,904,-814
12:43:47.110,,-1025,904,-814
12:43:47.112,,-1116,975,-889
12:43:47.113,,-1116,975,-889
12:43:47.114,,-1116,975,-889
12:43:47.117,,-1116,975,-889
12:43:47.127,,-1104,1086,-903
12:43:47.137,,-1197,1215,-1127
12:43:47.147,,-1321,1443,-1442
12:43:47.157,,-1374,1729,-1725
12:43:47.167,,-1364,1922,-1860
12:43:47.177,,-1232,1960,-1586
12:43:47.187,,-1108,1923,-1379
12:43:47.197,,-928,1898,-1156
12:43:47.207,,-632,1861,-985
12:43:47.217,,-406,1845,-923
12:43:47.227,,-245,1847,-906
12:43:47.237,,-180,1794,-965
12:43:47.247,,-178,1726,-1026
12:43:47.257,,-226,1651,-1165
12:43:47.267,,-307,1576,-1310
12:43:47.277,,-319,1489,-1458
12:43:47.287,,-277,1386,-1483
12:43:47.297,,-193,1312,-1402
12:43:47.307,,93,1095,-1189
12:43:47.317,,211,1029,-1035
12:43:47.327,,296,1006,-879
12:43:47.337,,313,946,-761
12:43:47.347,,293,858,-653
12:43:47.357,,241,804,-556
12:43:47.367,,193,779,-509
12:43:47.377,,162,751,-533
12:43:47.387,,91,778,-608
12:43:47.397,,27,837,-649
12:43:47.407,,-8,923,-649
12:43:47.417,,-41,950,-649
12:43:47.427,,-151,990,-689
12:43:47.437,,-429,981,-671
12:43:47.447,,-550,841,-688
12:43:47.457,,-662,667,-718
12:43:47.467,,-703,510,-730
12:43:47.477,,-718,371,-715
12:43:47.487,,-742,257,-697
12:43:47.497,,-834,158,-660
12:43:47.507,,-928,27,-709
12:43:47.517,,-1056,-167,-830
12:43:47.527,,-1180,-392,-934
12:43:47.537,,-1361,-744,-1006
12:43:47.547,,-1537,-1227,-1036
12:43:47.557,,-1729,-1998,-933
12:43:47.567,,-1863,-1998,-856
12:43:47.577,,-1809,-1998,-702
12:43:47.587,,-1646,-1998,-550
12:43:47.597,,-1327,-1998,-497
12:43:47.607,,-1114,-1998,-503
12:43:47.617,,-959,-1876,-568
12:43:47.627,,-872,-1690,-584
12:43:47.637,,-803,-1535,-576
12:43:47.647,,-773,-1425,-579
12:43:47.657,,-797,-1379,-620
12:43:47.667,,-812,-1305,-661
12:43:47.677,,-823,-1204,-639
12:43:47.687,,-897,-1178,-629
12:43:47.697,,-965,-1183,-578
12:43:47.707,,-946,-1098,-531
12:43:47.717,,-904,-933,-530
12:43:47.727,,-860,-694,-613
12:43:47.737,,-872,-476,-720
12:43:47.747,,-848,-268,-673
12:43:47.757,,-798,2,-641
12:43:47.767,,-841,231,-644
12:43:47.777,,-863,417,-656
12:43:47.787,,-858,533,-609
12:43:47.797,,-862,625,-563
12:43:47.807,,-882,750,-598
12:43:47.817,,-844,1082,-647
12:43:47.827,,-847,1194,-703
12:43:47.837,,-983,1240,-848
12:43:47.847,,-1136,1340,-974
12:43:47.857,,-1252,1476,-1071
12:43:47.867,,-1396,1577,-1139
12:43:47.877,,-1469,1672,-1200
12:43:47.887,,-1444,1779,-1314
12:43:47.897,,-1394,1904,-1469
12:43:47.907,,-1305,1994,-1614
12:43:47.917,,-1065,1997,-1617
12:43:47.927,,-808,1997,-1463
12:43:47.937,,-621,1997,-1320
12:43:47.947,,-409,1997,-985
12:43:47.957,,-399,1892,-948
12:43:47.967,,-458,1685,-1003
12:43:47.977,,-492,1539,-1142
12:43:47.987,,-485,1456,-1288
12:43:47.997,,-421,1431,-1382
12:43:48.007,,-305,1398,-1450
12:43:48.017,,-189,1327,-1389
12:43:48.027,,-98,1200,-1229
12:43:48.037,,-47,1049,-1016
12:43:48.047,,-2,913,-798
12:43:48.057,,29,814,-594
12:43:48.067,,41,719,-420
12:43:48.077,,37,573,-431
12:43:48.087,,5,495,-457
12:43:48.097,,-18,404,-486
12:43:48.107,,-25,350,-489
12:43:48.117,,-106,343,-503
12:43:48.127,,-239,310,-525
12:43:48.137,,-365,266,-515
12:43:48.147,,-484,212,-551
12:43:48.157,,-622,101,-632
12:43:48.167,,-749,-9,-687
12:43:48.177,,-796,-109,-735
12:43:48.187,,-835,-236,-773
12:43:48.197,,-880,-334,-867
12:43:48.207,,-833,-539,-950
12:43:48.217,,-851,-673,-1049
12:43:48.227,,-858,-820,-1112
12:43:48.237,,-851,-967,-1111
12:43:48.247,,-834,-1139,-1046
12:43:48.257,,-829,-1350,-941
12:43:48.267,,-869,-1612,-800
12:43:48.277,,-889,-1831,-618
12:43:48.287,,-959,-1990,-407
12:43:48.297,,-1040,-1998,-254
12:43:48.307,,-1092,-1998,-175
12:43:48.317,,-1109,-1998,-302
12:43:48.327,,-1138,-1998,-625
12:43:48.337,,-1218,-1998,-625
12:43:48.347,,-1210,-1998,-637
12:43:48.357,,-1167,-1998,-589
12:43:48.504,,-920,710,-746
12:43:48.505,,-920,710,-746
12:43:48.507,,-920,710,-746
12:43:48.508,,-920,710,-746
12:43:48.509,,-920,710,-746
12:43:48.511,,-920,710,-746
12:43:48.512,,-920,794,-688
12:43:48.513,,-789,794,-688
12:43:48.515,,-789,794,-688
12:43:48.516,,-789,794,-688
12:43:48.518,,-789,794,-688
12:43:48.519,,-789,794,-688
12:43:48.520,,-789,794,-688
12:43:48.522,,-823,781,-741
12:43:48.523,,-823,781,-741
12:43:48.524,,-823,781,-741
12:43:48.527,,-823,781,-741
12:43:48.537,,-904,845,-928
12:43:48.547,,-969,951,-1052
12:43:48.557,,-1025,1020,-1138
12:43:48.567,,-1108,1102,-1196
12:43:48.577,,-1215,1315,-1182
12:43:48.587,,-902,1702,-970
12:43:48.597,,-1079,1707,-1135
12:43:48.607,,-1136,1537,-1045
12:43:48.617,,-1077,1448,-932
12:43:48.627,,-1018,1336,-966
12:43:48.637,,-921,1347,-1137
12:43:48.647,,-855,1519,-1315
12:43:48.657,,-747,1784,-1362
12:43:48.667,,-645,1991,-1337
12:43:48.677,,-531,1997,-1318
12:43:48.687,,-329,1997,-1270
12:43:48.697,,-160,1983,-1205
12:43:48.707,,-137,1866,-1113
12:43:48.717,,-193,1651,-1151
12:43:48.727,,-197,1559,-1150
12:43:48.737,,-156,1454,-1134
12:43:48.747,,-41,1375,-1066
12:43:48.757,,55,1334,-994
12:43:48.767,,171,1278,-913
12:43:48.777,,239,1189,-810
12:43:48.787,,263,1083,-677
12:43:48.797,,295,1001,-548
12:43:48.807,,320,921,-466
12:43:48.817,,300,852,-421
12:43:48.827,,256,799,-433
12:43:48.837,,180,759,-523
12:43:48.847,,64,692,-535
12:43:48.857,,23,625,-529
12:43:48.867,,-17,521,-476
12:43:48.877,,-47,483,-406
12:43:48.887,,-167,501,-414
12:43:48.897,,-335,472,-411
12:43:48.907,,-489,412,-417
12:43:48.917,,-624,341,-462
12:43:48.926,,-705,281,-515
12:43:48.937,,-787,201,-616
12:43:48.947,,-833,106,-704
12:43:48.956,,-826,-32,-795
12:43:48.967,,-863,-182,-971
12:43:48.977,,-933,-749,-1026
12:43:48.986,,-1009,-1172,-1036
12:43:48.997,,-1081,-1646,-899
12:43:49.006,,-1113,-1989,-683
12:43:49.016,,-1159,-1998,-531
12:43:49.026,,-1211,-1998,-570
12:43:49.036,,-1275,-1998,-752
12:43:49.046,,-1254,-1998,-925
12:43:49.056,,-1152,-1998,-988
12:43:49.066,,-1015,-1998,-893
12:43:49.076,,-878,-1998,-739
12:43:49.086,,-740,-1902,-650
12:43:49.096,,-504,-1531,-579
12:43:49.106,,-455,-1360,-589
12:43:49.116,,-413,-1211,-620
12:43:49.126,,-402,-1115,-504
12:43:49.136,,-400,-1016,-538
12:43:49.146,,-348,-875,-528
12:43:49.156,,-312,-731,-502
12:43:49.166,,-334,-599,-480
12:43:49.176,,-404,-468,-507
12:43:49.186,,-492,-314,-615
12:43:49.196,,-520,-128,-742
12:43:49.206,,-512,74,-875
12:43:49.216,,-515,234,-1033
12:43:49.226,,-536,438,-1235
12:43:49.236,,-498,483,-1299
12:43:49.246,,-461,448,-1384
12:43:49.256,,-471,465,-1483
12:43:49.266,,-418,546,-1580
12:43:49.276,,-356,551,-1735
12:43:49.286,,-337,549,-1903
12:43:49.296,,-302,554,-1992
12:43:49.306,,-299,503,-1995
12:43:49.316,,-301,417,-1946
12:43:49.326,,-279,275,-1788
12:43:49.336,,-271,109,-1509
12:43:49.346,,-275,-5,-1198
12:43:49.356,,-342,-111,-723
12:43:49.366,,-344,-204,-467
12:43:49.376,,-444,-262,-499
12:43:49.386,,-532,-249,-390
12:43:49.396,,-595,-210,-213
12:43:49.406,,-663,-114,-64
12:43:49.416,,-740,-14,69
12:43:49.426,,-959,53,234
12:43:49.436,,-1169,233,427
12:43:49.446,,-1311,493,731
12:43:49.456,,-1518,595,1067
12:43:49.466,,-1478,653,1382
12:43:49.476,,-1146,684,1809
12:43:49.486,,-895,381,1998
12:43:49.496,,-910,173,1998
12:43:49.506,,-1005,135,1998
12:43:49.516,,-1053,153,1998
12:43:49.526,,-1117,166,1998
12:43:49.536,,-1140,221,1998
12:43:49.546,,-878,398,1998
12:43:49.556,,-481,537,1998
12:43:49.566,,-333,590,1998
12:43:49.576,,-401,527,1998
12:43:49.586,,-494,439,1998
12:43:49.596,,-800,335,1998
12:43:49.606,,-916,233,1998
12:43:49.616,,-933,61,1961
12:43:49.626,,-815,-66,1790
12:43:49.636,,-677,-186,1746
12:43:49.646,,-461,-167,1905
12:43:49.656,,-192,-78,1998
12:43:49.666,,-85,-27,1998
12:43:49.676,,-137,10,1998
12:43:49.686,,-360,-22,1929
12:43:49.696,,-643,-52,1637
12:43:49.706,,-683,-71,1344
12:43:49.716,,-585,-128,1206
12:43:49.726,,-432,-179,1135
12:43:49.736,,-227,-47,1441
12:43:49.746,,-249,8,1459
12:43:49.756,,-399,187,1351
12:43:49.766,,-695,327,1089
12:43:49.776,,-925,335,788
12:43:49.924,,-1008,-157,-1994
12:43:49.925,,-1008,-157,-1994
12:43:49.926,,-1008,-157,-1994
12:43:49.928,,-1008,-157,-1994
12:43:49.929,,-1008,-157,-1994
12:43:49.931,,-1008,-157,-1994
12:43:49.932,,-1024,-132,-1803
12:43:49.933,,-1024,-132,-1803
12:43:49.935,,-1024,-132,-1803
12:43:49.936,,-1024,-132,-1803
12:43:49.937,,-1024,-132,-1803
12:43:49.939,,-1024,-132,-1803
12:43:49.940,,-1024,-132,-1803
12:43:49.942,,-1006,-83,-1594
12:43:49.943,,-1006,-83,-1594
12:43:49.944,,-1006,-83,-1594
12:43:49.946,,-1006,-83,-1594
12:43:49.956,,-1002,-20,-1529
12:43:49.966,,-913,34,-1542
12:43:49.976,,-732,78,-1583
12:43:49.986,,-612,146,-1634
12:43:49.996,,-497,299,-1855
12:43:50.006,,-399,277,-1776
12:43:50.016,,-351,216,-1559
12:43:50.026,,-351,155,-1237
12:43:50.036,,-339,121,-884
12:43:50.046,,-380,121,-558
12:43:50.056,,-436,72,-275
12:43:50.066,,-376,-8,-44
12:43:50.076,,-476,-26,148
12:43:50.086,,-635,15,299
12:43:50.096,,-872,-35,442
12:43:50.106,,-1244,-72,580
12:43:50.116,,-1494,19,709
12:43:50.126,,-1871,21,1106
12:43:50.136,,-1990,101,1366
12:43:50.146,,-1847,156,1655
12:43:50.156,,-1392,191,1885
12:43:50.166,,-1141,122,1986
12:43:50.176,,-1172,134,1971
12:43:50.186,,-1263,249,1998
12:43:50.196,,-1163,330,1998
12:43:50.206,,-759,501,1998
12:43:50.216,,-144,436,1998
12:43:50.226,,40,257,1998
12:43:50.236,,-235,176,1998
12:43:50.246,,-554,102,1998
12:43:50.256,,-917,-109,1998
12:43:50.266,,-1048,-156,1998
12:43:50.276,,-1049,-148,1998
12:43:50.286,,-883,-134,1998
12:43:50.296,,-656,-108,1998
12:43:50.306,,-503,-60,1998
12:43:50.316,,-438,-6,1998
12:43:50.326,,-452,16,1998
12:43:50.336,,-645,-60,1948
12:43:50.346,,-736,-32,1672
12:43:50.356,,-816,29,1418
12:43:50.366,,-807,8,1283
12:43:50.376,,-640,-64,1217
12:43:50.386,,-324,-17,1301
12:43:50.396,,-289,3,1338
12:43:50.406,,-301,-5,1408
12:43:50.416,,-529,-29,1275
12:43:50.426,,-820,59,1051
12:43:50.436,,-988,105,839
12:43:50.446,,-1096,128,616
12:43:50.456,,-1138,150,436
12:43:50.466,,-1138,192,292
12:43:50.476,,-1094,235,165
12:43:50.486,,-1092,274,3
12:43:50.496,,-1080,317,-192
12:43:50.506,,-1033,487,-858
12:43:50.516,,-951,572,-1448
12:43:50.526,,-904,556,-1973
12:43:50.536,,-969,473,-1997
12:43:50.546,,-1090,377,-1997
12:43:50.556,,-1129,188,-1997
12:43:50.566,,-1142,-46,-1997
12:43:50.576,,-1206,-217,-1997
12:43:50.586,,-1200,-301,-1923
12:43:50.596,,-1183,-282,-1645
12:43:50.606,,-1145,-245,-1512
12:43:50.616,,-1075,-206,-1468
12:43:50.626,,-947,-144,-1446
12:43:50.636,,-670,-118,-1455
12:43:50.646,,-594,-142,-1474
12:43:50.656,,-567,-140,-1482
12:43:50.666,,-515,-104,-1487
12:43:50.676,,-457,-99,-1444
12:43:50.686,,-443,-97,-1360
12:43:50.696,,-386,-70,-1215
12:43:50.706,,-309,-11,-993
12:43:50.716,,-268,-2,-765
12:43:50.726,,-208,-61,-505
12:43:50.736,,-250,-91,-248
12:43:50.746,,-346,-35,-46
12:43:50.756,,-393,-10,114
12:43:50.766,,-604,10,413
12:43:50.776,,-893,63,552
12:43:50.786,,-1354,107,778
12:43:50.796,,-1626,271,1013
12:43:50.806,,-1824,226,1270
12:43:50.816,,-1792,165,1462
12:43:50.826,,-1628,245,1477
12:43:50.836,,-1652,209,1539
12:43:50.846,,-1541,260,1760
12:43:50.856,,-1338,436,1956
12:43:50.866,,-1444,538,1998
12:43:50.876,,-1229,499,1998
12:43:50.886,,-818,441,1998
12:43:50.896,,-602,317,1998
12:43:50.906,,-613,351,1998
12:43:50.916,,-603,443,1998
12:43:50.926,,-664,406,1998
12:43:50.936,,-787,266,1998
12:43:50.946,,-884,229,1998
12:43:50.956,,-986,161,1998
12:43:50.966,,-1018,124,1998
12:43:50.976,,-943,137,1998
12:43:50.986,,-801,125,1998
12:43:50.996,,-683,129,1998
12:43:51.006,,-642,127,1998
12:43:51.016,,-681,85,1996
12:43:51.026,,-731,102,1955
12:43:51.036,,-773,139,1915
12:43:51.046,,-897,135,1770
12:43:51.056,,-973,12,1578
12:43:51.066,,-1063,-67,1288
12:43:51.076,,-1107,-96,993
12:43:51.086,,-932,-44,866
12:43:51.096,,-596,67,922
12:43:51.106,,-487,73,766
12:43:51.116,,-539,133,650
12:43:51.126,,-734,147,473
12:43:51.136,,-878,112,390
12:43:51.146,,-900,108,329
12:43:51.156,,-1183,50,181
12:43:51.166,,-1170,130,29
12:43:51.176,,-1132,249,-174
12:43:51.186,,-1099,299,-452
12:43:51.196,,-995,408,-867
12:43:51.206,,-896,584,-1522
12:43:51.216,,-875,618,-1990
12:43:51.369,,-362,-125,-1247
12:43:51.370,,-455,-125,-1247
12:43:51.372,,-455,-125,-1247
12:43:51.373,,-455,-125,-1247
12:43:51.374,,-455,-125,-1247
12:43:51.376,,-455,-125,-1247
12:43:51.377,,-455,-125,-1247
12:43:51.379,,-478,-107,-1093
12:43:51.380,,-478,-107,-1093
12:43:51.381,,-478,-107,-1093
12:43:51.383,,-478,-107,-1093
12:43:51.384,,-478,-107,-1093
12:43:51.385,,-478,-107,-1093
12:43:51.387,,-478,-107,-1093
12:43:51.388,,-371,-52,-939
12:43:51.389,,-371,-52,-939
12:43:51.391,,-371,-52,-939
12:43:51.396,,-371,-52,-939
12:43:51.406,,-206,-37,-598
12:43:51.416,,-221,0,-442
12:43:51.426,,-264,7,-263
12:43:51.436,,-283,28,-77
12:43:51.446,,-357,59,97
12:43:51.456,,-525,61,273
12:43:51.466,,-756,70,430
12:43:51.476,,-1086,143,578
12:43:51.486,,-1391,263,745
12:43:51.496,,-1685,376,957
12:43:51.506,,-1717,449,1272
12:43:51.516,,-1466,352,1800
12:43:51.526,,-1114,383,1998
12:43:51.536,,-999,263,1997
12:43:51.546,,-1056,202,1998
12:43:51.556,,-1028,115,1997
12:43:51.566,,-1071,85,1998
12:43:51.576,,-1110,69,1998
12:43:51.586,,-1164,61,1998
12:43:51.596,,-1070,176,1998
12:43:51.606,,-786,299,1998
12:43:51.616,,-567,373,1998
12:43:51.626,,-547,352,1998
12:43:51.636,,-692,280,1998
12:43:51.646,,-981,218,1998
12:43:51.656,,-1152,145,1998
12:43:51.666,,-1215,-42,1762
12:43:51.676,,-1186,-61,1499
12:43:51.686,,-1072,-51,1431
12:43:51.696,,-930,-65,1453
12:43:51.706,,-711,-32,1649
12:43:51.716,,-431,-25,1975
12:43:51.726,,-321,-94,1998
12:43:51.736,,-274,-105,1998
12:43:51.746,,-401,-130,1998
12:43:51.756,,-645,-146,1998
12:43:51.766,,-827,-143,1850
12:43:51.776,,-955,-119,1471
12:43:51.786,,-941,-102,1050
12:43:51.796,,-519,48,1224
12:43:51.806,,-324,143,1467
12:43:51.816,,-317,143,1592
12:43:51.826,,-513,108,1486
12:43:51.836,,-964,43,1143
12:43:51.846,,-1372,-1,754
12:43:51.856,,-1541,7,381
12:43:51.866,,-1463,36,177
12:43:51.876,,-1316,83,85
12:43:51.886,,-1239,114,-17
12:43:51.896,,-1242,107,-115
12:43:51.906,,-1310,122,-312
12:43:51.916,,-1328,175,-833
12:43:51.926,,-1072,338,-1190
12:43:51.936,,-934,426,-1692
12:43:51.946,,-920,422,-1997
12:43:51.956,,-979,356,-1997
12:43:51.966,,-1049,239,-1997
12:43:51.976,,-1066,3,-1997
12:43:51.986,,-1099,-248,-1997
12:43:51.996,,-1127,-422,-1943
12:43:52.006,,-1141,-453,-1673
12:43:52.016,,-1139,-353,-1461
12:43:52.026,,-1082,-178,-1366
12:43:52.036,,-956,-4,-1353
12:43:52.046,,-729,217,-1417
12:43:52.056,,-613,292,-1375
12:43:52.066,,-383,397,-1358
12:43:52.076,,-299,444,-1315
12:43:52.086,,-241,421,-1184
12:43:52.096,,-210,446,-938
12:43:52.106,,-101,437,-699
12:43:52.116,,-2,431,-535
12:43:52.126,,37,483,-385
12:43:52.136,,216,594,-141
12:43:52.146,,472,656,89
12:43:52.156,,696,756,316
12:43:52.166,,916,896,599
12:43:52.176,,877,684,776
12:43:52.186,,829,512,744
12:43:52.196,,801,272,696
12:43:52.206,,666,22,607
12:43:52.216,,406,-250,545
12:43:52.226,,120,-520,562
12:43:52.236,,-194,-805,554
12:43:52.246,,-501,-1104,588
12:43:52.256,,-733,-1503,651
12:43:52.266,,-925,-1969,485
12:43:52.276,,-1218,-1998,148
12:43:52.286,,-1527,-1998,-199
12:43:52.296,,-1694,-1998,-521
12:43:52.306,,-1274,-1998,-374
12:43:52.316,,-847,-1998,120
12:43:52.326,,-537,-1998,481
12:43:52.336,,-357,-1998,700
12:43:52.346,,-270,-1998,813
12:43:52.356,,-254,-1998,816
12:43:52.366,,-289,-1924,703
12:43:52.376,,-324,-1726,545
12:43:52.386,,-378,-1583,418
12:43:52.396,,-443,-1458,307
12:43:52.406,,-510,-1342,185
12:43:52.416,,-594,-1234,45
12:43:52.426,,-650,-1120,-79
12:43:52.436,,-652,-911,-158
12:43:52.446,,-647,-807,-80
12:43:52.456,,-740,-715,-122
12:43:52.466,,-776,-643,-186
12:43:52.476,,-769,-505,-240
12:43:52.486,,-811,-344,-336
12:43:52.496,,-874,-175,-482
12:43:52.506,,-906,0,-671
12:43:52.516,,-933,147,-877
12:43:52.526,,-943,242,-1030
12:43:52.536,,-978,280,-1133
12:43:52.546,,-1057,319,-1159
12:43:52.556,,-1175,353,-1503
12:43:52.566,,-1370,532,-1690
12:43:52.576,,-1407,663,-1833
12:43:52.586,,-1462,812,-1960
12:43:52.596,,-1474,925,-1997
12:43:52.606,,-1451,1012,-1996
12:43:52.616,,-1388,1092,-1926
12:43:52.626,,-1304,1124,-1804
12:43:52.636,,-1218,1138,-1658
12:43:52.646,,-1061,1122,-1506
12:43:52.794,,867,783,-408
12:43:52.795,,867,783,-408
12:43:52.797,,867,783,-408
12:43:52.798,,875,717,-246
12:43:52.799,,875,717,-246
12:43:52.801,,875,717,-246
12:43:52.802,,875,717,-246
12:43:52.803,,875,717,-246
12:43:52.805,,875,717,-246
12:43:52.806,,875,717,-246
12:43:52.807,,880,706,-131
12:43:52.809,,880,706,-131
12:43:52.810,,880,706,-131
12:43:52.812,,880,706,-131
12:43:52.813,,880,706,-131
12:43:52.814,,880,706,-131
12:43:52.816,,831,686,-62
12:43:52.826,,718,623,-34
12:43:52.836,,583,552,-57
12:43:52.846,,417,437,-141
12:43:52.856,,231,360,-228
12:43:52.866,,32,279,-308
12:43:52.876,,-168,155,-430
12:43:52.886,,-390,-35,-557
12:43:52.896,,-575,-315,-687
12:43:52.906,,-670,-644,-893
12:43:52.916,,-743,-1010,-1128
12:43:52.926,,-726,-1400,-1403
12:43:52.936,,-528,-1647,-1667
12:43:52.946,,-338,-1877,-1711
12:43:52.956,,-293,-1723,-1528
12:43:52.966,,-349,-1486,-1101
12:43:52.976,,-473,-1152,-655
12:43:52.986,,-685,-864,-284
12:43:52.996,,-851,-684,119
12:43:53.006,,-942,-500,642
12:43:53.016,,-984,-296,1392
12:43:53.026,,-596,54,1991
12:43:53.036,,219,-106,1998
12:43:53.046,,1156,-532,1998
12:43:53.056,,1323,-914,1998
12:43:53.066,,754,-1265,1998
12:43:53.076,,-97,-1421,1998
12:43:53.086,,-273,-1339,1944
12:43:53.096,,-209,-1146,1513
12:43:53.106,,-36,-1005,1138
12:43:53.116,,149,-926,1032
12:43:53.126,,209,-928,1076
12:43:53.136,,78,-969,1065
12:43:53.146,,-74,-1037,1088
12:43:53.156,,-228,-1112,1209
12:43:53.166,,-390,-1055,1061
12:43:53.176,,-493,-903,938
12:43:53.186,,-463,-777,811
12:43:53.196,,-453,-654,668
12:43:53.206,,-459,-463,391
12:43:53.216,,-515,-413,300
12:43:53.226,,-565,-401,209
12:43:53.236,,-682,-387,63
12:43:53.246,,-815,-303,-162
12:43:53.256,,-924,-181,-456
12:43:53.266,,-1002,-54,-773
12:43:53.276,,-1055,61,-1145
12:43:53.286,,-1108,117,-1595
12:43:53.296,,-1106,247,-1971
12:43:53.306,,-1150,279,-1997
12:43:53.316,,-1165,424,-1997
12:43:53.326,,-1070,488,-1997
12:43:53.336,,-1104,444,-1997
12:43:53.346,,-1068,355,-1938
12:43:53.356,,-999,232,-1796
12:43:53.366,,-934,125,-1641
12:43:53.376,,-850,51,-1525
12:43:53.386,,-787,3,-1510
12:43:53.396,,-742,-47,-1575
12:43:53.406,,-683,-101,-1623
12:43:53.416,,-625,-145,-1580
12:43:53.426,,-596,-151,-1541
12:43:53.436,,-615,-150,-1498
12:43:53.446,,-652,-165,-1359
12:43:53.456,,-688,-198,-1016
12:43:53.466,,-770,-179,-790
12:43:53.476,,-809,-179,-537
12:43:53.486,,-816,-167,-355
12:43:53.496,,-896,-144,-198
12:43:53.506,,-1031,-105,2
12:43:53.516,,-1301,-38,228
12:43:53.526,,-1707,54,534
12:43:53.536,,-1998,198,863
12:43:53.546,,-1998,437,1194
12:43:53.556,,-1998,633,1572
12:43:53.566,,-1998,543,1972
12:43:53.576,,-1875,494,1998
12:43:53.586,,-1734,350,1998
12:43:53.596,,-1682,345,1983
12:43:53.606,,-1895,284,1969
12:43:53.616,,-1802,298,1998
12:43:53.626,,-1402,388,1998
12:43:53.636,,-1115,383,1998
12:43:53.646,,-978,324,1998
12:43:53.656,,-954,372,1998
12:43:53.666,,-893,596,1998
12:43:53.676,,-801,745,1998
12:43:53.686,,-927,718,1998
12:43:53.696,,-1177,686,1998
12:43:53.706,,-1317,599,1998
12:43:53.716,,-1334,360,1806
12:43:53.726,,-1306,240,1567
12:43:53.736,,-1194,156,1417
12:43:53.746,,-1013,128,1472
12:43:53.756,,-842,109,1593
12:43:53.766,,-712,69,1722
12:43:53.776,,-584,53,1922
12:43:53.786,,-467,56,1998
12:43:53.796,,-623,45,1998
12:43:53.806,,-909,22,1998
12:43:53.816,,-1038,0,1837
12:43:53.826,,-1116,-7,1582
12:43:53.836,,-1050,47,1417
12:43:53.846,,-927,37,1069
12:43:53.856,,-866,21,1071
12:43:53.866,,-803,86,1158
12:43:53.876,,-811,152,1202
12:43:53.886,,-943,201,1093
12:43:53.896,,-1030,312,1045
12:43:53.906,,-1322,263,796
12:43:53.916,,-1658,162,434
12:43:53.926,,-1767,105,94
12:43:53.936,,-1685,97,-171
12:43:53.946,,-1497,116,-360
12:43:53.956,,-1348,152,-511
12:43:53.966,,-1228,227,-1000
12:43:53.976,,-968,504,-1500
12:43:53.986,,-1031,508,-1984
12:43:53.996,,-1141,394,-1997
12:43:54.006,,-1183,278,-1997
12:43:54.016,,-1215,114,-1997
12:43:54.026,,-1275,-207,-1997
12:43:54.036,,-1275,-382,-1997
12:43:54.046,,-1267,-524,-1942
12:43:54.056,,-1306,-576,-1682
12:43:54.066,,-1165,-497,-1557
12:43:54.076,,-1000,-396,-1485
12:43:54.223,,-672,-10,230
12:43:54.225,,-672,-10,230
12:43:54.226,,-854,30,392
12:43:54.228,,-854,30,392
12:43:54.229,,-854,30,392
12:43:54.230,,-854,30,392
12:43:54.232,,-854,30,392
12:43:54.233,,-854,30,392
12:43:54.234,,-854,30,392
12:43:54.236,,-1097,61,584
12:43:54.237,,-1097,61,584
12:43:54.238,,-1097,61,584
12:43:54.240,,-1097,61,584
12:43:54.241,,-1097,61,584
12:43:54.243,,-1097,61,584
12:43:54.244,,-1097,61,584
12:43:54.246,,-1424,141,804
12:43:54.256,,-1721,275,973
12:43:54.266,,-1906,348,1172
12:43:54.276,,-1842,298,1430
12:43:54.286,,-1694,357,1635
12:43:54.296,,-1704,292,1770
12:43:54.306,,-1611,258,1922
12:43:54.316,,-1447,269,1931
12:43:54.326,,-1488,254,1936
12:43:54.336,,-1643,256,1995
12:43:54.346,,-1545,331,1998
12:43:54.356,,-1323,294,1998
12:43:54.366,,-1271,330,1998
12:43:54.376,,-1117,508,1998
12:43:54.386,,-888,705,1998
12:43:54.396,,-748,670,1998
12:43:54.406,,-769,564,1998
12:43:54.416,,-892,468,1998
12:43:54.426,,-971,361,1998
12:43:54.436,,-1041,259,1951
12:43:54.446,,-1100,188,1766
12:43:54.456,,-1163,34,1603
12:43:54.466,,-1137,-86,1492
12:43:54.476,,-1028,-127,1438
12:43:54.486,,-761,39,1751
12:43:54.496,,-591,169,1959
12:43:54.506,,-575,264,1998
12:43:54.516,,-782,277,1930
12:43:54.526,,-838,215,1737
12:43:54.536,,-901,127,1474
12:43:54.546,,-917,85,1226
12:43:54.556,,-819,96,1108
12:43:54.566,,-640,125,1060
12:43:54.576,,-486,158,1077
12:43:54.586,,-460,125,1059
12:43:54.596,,-515,127,951
12:43:54.606,,-576,154,843
12:43:54.616,,-820,117,744
12:43:54.626,,-849,13,557
12:43:54.636,,-933,-58,328
12:43:54.646,,-861,-74,166
12:43:54.656,,-722,0,57
12:43:54.666,,-594,83,46
12:43:54.676,,-607,114,-129
12:43:54.686,,-673,141,-446
12:43:54.696,,-656,193,-798
12:43:54.706,,-617,213,-1190
12:43:54.716,,-622,181,-1667
12:43:54.726,,-680,61,-1981
12:43:54.736,,-738,-117,-1997
12:43:54.746,,-891,-485,-1997
12:43:54.756,,-920,-587,-1982
12:43:54.766,,-1050,-691,-1804
12:43:54.776,,-1066,-681,-1662
12:43:54.786,,-999,-667,-1598
12:43:54.796,,-958,-587,-1532
12:43:54.806,,-905,-506,-1493
12:43:54.816,,-799,-442,-1425
12:43:54.826,,-648,-438,-1323
12:43:54.836,,-510,-476,-1246
12:43:54.846,,-422,-501,-1206
12:43:54.856,,-352,-489,-1160
12:43:54.866,,-308,-485,-1233
12:43:54.876,,-318,-488,-1278
12:43:54.886,,-298,-453,-1221
12:43:54.896,,-262,-384,-1129
12:43:54.906,,-233,-357,-1027
12:43:54.916,,-211,-297,-915
12:43:54.926,,-174,-240,-764
12:43:54.936,,-170,-210,-610
12:43:54.946,,-188,-167,-444
12:43:54.956,,-191,-102,-306
12:43:54.966,,-221,-49,-192
12:43:54.976,,-301,13,-80
