Sensors' Acquisition [Hz]: Gyro@104.0 
hh:mm:ss.ms, Annotation , GyroX [mdps], GyroY, GyroZ
16:19:05.342,,-10780,-237230,-17220
16:19:05.352,,-14560,-200760,-17570
16:19:05.362,,-7070,-187600,-22540
16:19:05.372,,9450,-178570,-28420
16:19:05.382,,30660,-171640,-33460
16:19:05.392,,46690,-163310,-35420
16:19:05.402,,50820,-153370,-33950
16:19:05.412,,44870,-142380,-28770
16:19:05.422,,35700,-131950,-20930
16:19:05.432,>Gesture,,,
16:19:05.433,,19600,-118720,-12600
16:19:05.442,,11340,-109270,-8610
16:19:05.453,,10500,-102620,-8610
16:19:05.462,,22260,-106540,-8820
16:19:05.473,,49770,-128450,-11270
16:19:05.482,,51380,-134610,-11480
16:19:05.493,,46760,-138950,-5880
16:19:05.502,,44310,-141610,2310
16:19:05.512,,29540,-136920,7000
16:19:05.522,,19390,-128660,15960
16:19:05.532,,18480,-120960,20860
16:19:05.542,,21210,-113890,17990
16:19:05.552,,27230,-109620,14490
16:19:05.562,,30170,-106120,13440
16:19:05.572,,25480,-99680,15680
16:19:05.582,,14490,-90510,20860
16:19:05.592,,-8120,-79450,26320
16:19:05.602,,-38150,-66360,30100
16:19:05.612,,-83300,-39130,29190
16:19:05.622,,-94010,-28070,27300
16:19:05.632,,-101640,-18690,23660
16:19:05.642,,-103530,-12530,19040
16:19:05.652,,-99330,-7910,15050
16:19:05.662,,-90790,-1820,13510
16:19:05.672,,-75320,2870,16100
16:19:05.682,,-71680,13370,15260
16:19:05.692,,-80990,28350,11480
16:19:05.702,,-100310,45570,13510
16:19:05.712,,-115150,55510,13930
16:19:05.722,,-114870,57680,10920
16:19:05.732,,-106470,59500,9450
16:19:05.742,,-103460,73220,7560
16:19:05.752,,-110110,80220,5390
16:19:05.762,,-111440,85890,9450
16:19:05.772,,-113820,92610,18690
16:19:05.782,,-109620,97650,24500
16:19:05.792,,-110670,102900,25550
16:19:05.802,,-120260,109970,26950
16:19:05.812,,-119840,115150,26530
16:19:05.822,,-117950,118510,26880
16:19:05.832,,-117880,121800,23660
16:19:05.842,,-116550,124250,14770
16:19:05.852,,-109550,125090,9800
16:19:05.862,,-105000,130760,7210
16:19:05.872,,-99190,139580,10220
16:19:05.882,,-92400,148050,15470
16:19:05.892,,-78190,153020,24850
16:19:05.902,,-58100,154630,35070
16:19:05.912,,-40530,156520,42910
16:19:05.922,,-29260,161980,48650
16:19:05.932,,-21070,169470,52710
16:19:05.942,,-15400,178290,55230
16:19:05.952,,-13440,189770,55650
16:19:05.962,,-13510,203210,54600
16:19:05.972,,-14490,220080,55930
16:19:05.982,,-18340,234640,59570
16:19:05.992,,-18410,244160,67200
16:19:06.002,,-10570,247100,68740
16:19:06.012,,-2660,245840,69860
16:19:06.022,,2660,242900,71260
16:19:06.032,,4480,239260,72940
16:19:06.042,,2870,235340,74060
16:19:06.052,,-2520,237370,76300
16:19:06.062,,-7560,241640,78330
16:19:06.072,,-5530,243320,83510
16:19:06.082,,4760,243460,90720
16:19:06.092,,17290,240870,95690
16:19:06.102,,28910,234220,102340
16:19:06.112,,34860,224560,110740
16:19:06.122,,27790,205240,123130
16:19:06.132,,27230,204750,128030
16:19:06.142,,29610,206220,128310
16:19:06.152,,36890,202720,124460
16:19:06.162,,48300,190750,116830
16:19:06.172,,56350,172200,108290
16:19:06.182,,55650,151060,99610
16:19:06.192,,45360,132230,90440
16:19:06.202,,32900,114590,83720
16:19:06.212,,22890,98070,77420
16:19:06.222,,19320,81200,70210
16:19:06.232,,23520,64330,64260
16:19:06.242,,33320,48720,58730
16:19:06.252,,44240,17010,48790
16:19:06.262,,38850,910,43330
16:19:06.272,,31360,-12880,37240
16:19:06.282,,27020,-25760,30730
16:19:06.292,,25270,-39410,23520
16:19:06.302,,24290,-52990,17360
16:19:06.312,,22330,-64610,13230
16:19:06.322,,20580,-74480,8750
16:19:06.332,,22470,-82950,4060
16:19:06.342,,27790,-90930,-630
16:19:06.352,,35000,-99890,-6650
16:19:06.362,,42350,-110670,-14840
16:19:06.372,,48440,-124950,-32970
16:19:06.382,,47810,-161700,-43050
16:19:06.392,,40040,-180180,-51660
16:19:06.402,,29260,-197050,-58100
16:19:06.412,,19600,-208950,-62790
16:19:06.422,,15960,-213220,-65730
16:19:06.432,,20230,-213150,-66640
16:19:06.442,,26390,-211890,-66920
16:19:06.452,,34440,-212520,-69090
16:19:06.462,,41020,-214200,-73080
16:19:06.472,,45990,-219940,-73850
16:19:06.482,,43610,-228130,-73290
16:19:06.492,,33600,-236110,-73780
16:19:06.502,,20160,-245000,-77280
16:19:06.512,,9590,-242760,-69440
16:19:06.632,,14490,-216580,-34790
16:19:06.634,,14490,-216580,-34790
16:19:06.635,,14490,-216580,-34790
16:19:06.637,,14490,-216580,-34790
16:19:06.638,,14490,-216580,-34790
16:19:06.639,,14490,-216580,-34790
16:19:06.641,,14490,-216580,-34790
16:19:06.642,,18270,-209090,-32200
16:19:06.643,,18270,-209090,-32200
16:19:06.645,,18270,-209090,-32200
16:19:06.646,,18270,-209090,-32200
16:19:06.648,,18270,-209090,-32200
16:19:06.649,,18270,-209090,-32200
16:19:06.652,,20860,-202650,-33460
16:19:06.662,,18900,-195370,-38150
16:19:06.672,,11760,-185500,-41790
16:19:06.682,,4900,-177240,-38150
16:19:06.692,,2310,-172830,-35280
16:19:06.702,,910,-169680,-35490
16:19:06.712,,-1750,-165620,-35560
16:19:06.722,,-5600,-162960,-33460
16:19:06.732,,-7700,-162680,-30520
16:19:06.742,,-5460,-161280,-27720
16:19:06.752,,-5740,-158690,-26880
16:19:06.762,,-16870,-150920,-25340
16:19:06.772,,-19390,-147420,-25690
16:19:06.782,,-23870,-144480,-26040
16:19:06.792,,-28350,-142450,-26320
16:19:06.802,,-29610,-140350,-27510
16:19:06.812,,-31290,-133140,-27440
16:19:06.822,,-34370,-123690,-25760
16:19:06.832,,-30870,-117880,-25340
16:19:06.842,,-12740,-114590,-20580
16:19:06.852,,-19460,-90510,-17850
16:19:06.862,,-50120,-57400,-14770
16:19:06.872,,-70280,-39480,-6510
16:19:06.882,,-73290,-34930,-6370
16:19:06.892,,-74270,-25480,-10570
16:19:06.902,,-74970,-19670,-10710
16:19:06.912,,-79730,-8820,-1120
16:19:06.922,,-85400,5250,-2100
16:19:06.932,,-80780,15540,-1750
16:19:06.942,,-80780,31360,3080
16:19:06.952,,-81410,46760,8750
16:19:06.962,,-79520,58030,12110
16:19:06.972,,-71820,62160,13790
16:19:06.982,,-59990,62860,14350
16:19:06.992,,-48230,66220,15890
16:19:07.002,,-44240,75740,18970
16:19:07.012,,-49280,89670,22610
16:19:07.022,,-69090,117040,28910
16:19:07.032,,-81130,126210,26390
16:19:07.042,,-87850,132230,24500
16:19:07.052,,-85890,135100,23030
16:19:07.062,,-93590,137620,23240
16:19:07.072,,-86520,137900,31290
16:19:07.082,,-65520,136010,40810
16:19:07.092,,-49280,136150,45360
16:19:07.102,,-44590,140560,50540
16:19:07.112,,-50400,145250,55230
16:19:07.122,,-54950,147350,57680
16:19:07.132,,-60130,148820,57750
16:19:07.142,,-70000,151830,53620
16:19:07.152,,-83020,162120,55650
16:19:07.162,,-88200,167720,56910
16:19:07.172,,-92750,174580,62510
16:19:07.182,,-93170,180460,71120
16:19:07.192,,-87850,182560,77490
16:19:07.202,,-76020,180670,81060
16:19:07.212,,-63630,176680,83370
16:19:07.222,,-55230,172410,86240
16:19:07.232,,-50050,169470,90300
16:19:07.242,,-46130,167510,94360
16:19:07.252,,-42840,167160,96670
16:19:07.262,,-41580,174370,100170
16:19:07.272,,-43750,199570,109690
16:19:07.282,,-39690,205310,111580
16:19:07.292,,-26600,202440,111720
16:19:07.302,,-7770,193760,112210
16:19:07.312,,11340,185290,114030
16:19:07.322,,24850,182280,118370
16:19:07.332,,31500,184590,125230
16:19:07.342,,32480,190540,131740
16:19:07.352,,30100,197400,136360
16:19:07.362,,27860,202160,137970
16:19:07.372,,31290,203770,136780
16:19:07.382,,44660,203350,133910
16:19:07.392,,65030,200970,131810
16:19:07.402,,92330,185780,135240
16:19:07.412,,96040,178010,136710
16:19:07.422,,97300,173600,138390
16:19:07.432,,94360,172900,140070
16:19:07.442,,81690,174440,138810
16:19:07.452,,64610,175770,134120
16:19:07.462,,52920,171570,127960
16:19:07.472,,46270,161560,122430
16:19:07.482,,41160,150640,116900
16:19:07.492,,35700,139370,110180
16:19:07.502,,30380,128380,102970
16:19:07.512,,27440,115570,95760
16:19:07.522,,27720,98770,87570
16:19:07.532,,26110,60760,74060
16:19:07.542,,19740,43330,67270
16:19:07.552,,10780,28210,61250
16:19:07.562,,3570,15890,56000
16:19:07.572,,700,5390,49420
16:19:07.582,,2870,-3220,42000
16:19:07.592,,8750,-11760,34300
16:19:07.602,,15820,-22120,27020
16:19:07.612,,22750,-35210,21490
16:19:07.622,,27930,-50330,17640
16:19:07.632,,30100,-66710,14980
16:19:07.642,,30380,-83930,12950
16:19:07.652,,31220,-101430,10710
16:19:07.662,,35210,-132300,3640
16:19:07.672,,40250,-143080,-1680
16:19:07.682,,45850,-151970,-8050
16:19:07.692,,51520,-159530,-15190
16:19:07.702,,56420,-166880,-22190
16:19:07.712,,59710,-175420,-28910
16:19:07.837,,36960,-217910,-56560
16:19:07.839,,40320,-220290,-54460
16:19:07.840,,40320,-220290,-54460
16:19:07.841,,40320,-220290,-54460
16:19:07.843,,40320,-220290,-54460
16:19:07.844,,40320,-220290,-54460
16:19:07.845,,40320,-220290,-54460
16:19:07.847,,40320,-220290,-54460
16:19:07.848,,41370,-221900,-53550
16:19:07.850,,41370,-221900,-53550
16:19:07.851,,41370,-221900,-53550
16:19:07.852,,41370,-221900,-53550
16:19:07.854,,41370,-221900,-53550
16:19:07.855,,41370,-221900,-53550
16:19:07.862,,44030,-225050,-54110
16:19:07.872,,49700,-230300,-54810
16:19:07.882,,55090,-237860,-55370
16:19:07.892,,55580,-245910,-55580
16:19:07.902,,50260,-250670,-54040
16:19:07.912,,41650,-248150,-46480
16:19:07.922,,3360,-239890,-44310
16:19:07.932,,-10500,-229670,-41930
16:19:07.942,,-17360,-219660,-42070
16:19:07.952,,-20720,-209580,-44940
16:19:07.962,,-20860,-198380,-47250
16:19:07.972,,-19180,-187600,-48370
16:19:07.982,,-15610,-179620,-45780
16:19:07.992,,-15890,-166740,-40880
16:19:08.002,,-23310,-149240,-38990
16:19:08.012,,-29890,-136640,-36330
16:19:08.022,,-32480,-127680,-35770
16:19:08.032,,-33810,-118370,-36260
16:19:08.042,,-33320,-103810,-31500
16:19:08.052,,-24150,-105280,-27510
16:19:08.062,,-17150,-109550,-24360
16:19:08.072,,-15750,-109480,-21840
16:19:08.082,,-21210,-104580,-20720
16:19:08.092,,-28490,-100590,-20510
16:19:08.102,,-34440,-97090,-20860
16:19:08.112,,-36260,-93870,-24430
16:19:08.122,,-33460,-92050,-29120
16:19:08.132,,-28280,-92540,-32270
16:19:08.142,,-23380,-95690,-33950
16:19:08.152,,-22610,-98350,-33250
16:19:08.162,,-30450,-97300,-28420
16:19:08.172,,-61040,-82530,-18830
16:19:08.182,,-72030,-75250,-16520
16:19:08.192,,-76930,-68880,-15330
16:19:08.202,,-79520,-61250,-13440
16:19:08.212,,-81830,-51940,-11270
16:19:08.222,,-83300,-42700,-8960
16:19:08.232,,-64330,-42840,-7000
16:19:08.242,,-47670,-35350,2030
16:19:08.252,,-62790,-8050,2030
16:19:08.262,,-73640,10290,10780
16:19:08.272,,-76580,16730,10010
16:19:08.282,,-68950,16450,3150
16:19:08.292,,-60480,20510,140
16:19:08.302,,-37310,25760,5950
16:19:08.312,,-29820,32340,14280
16:19:08.322,,-24150,41790,21910
16:19:08.332,,-18060,52220,28560
16:19:08.342,,-19810,64470,32970
16:19:08.352,,-21840,72170,32830
16:19:08.362,,-25690,81760,34370
16:19:08.372,,-35770,91630,34860
16:19:08.382,,-42840,96670,35560
16:19:08.392,,-47740,99330,37450
16:19:08.402,,-53830,101570,37450
16:19:08.412,,-60060,103810,35490
16:19:08.422,,-62440,102480,34090
16:19:08.432,,-65030,100030,35420
16:19:08.442,,-66570,101430,35420
16:19:08.452,,-66500,102690,35070
16:19:08.462,,-67410,104860,34160
16:19:08.472,,-70910,108010,32620
16:19:08.482,,-74690,111720,33530
16:19:08.492,,-74410,115570,35210
16:19:08.502,,-73640,118860,41790
16:19:08.512,,-69090,121170,55650
16:19:08.522,,-68950,127260,65870
16:19:08.532,,-72030,134680,68110
16:19:08.542,,-72800,139790,68040
16:19:08.552,,-64120,139300,76090
16:19:08.562,,-35210,137970,76440
16:19:08.572,,-26110,142100,74200
16:19:08.582,,-14700,144550,73150
16:19:08.592,,-4340,148400,73080
16:19:08.602,,-1960,156800,74410
16:19:08.612,,-6160,167860,77070
16:19:08.622,,-10640,176820,81060
16:19:08.632,,-11340,182210,83930
16:19:08.642,,-11060,187180,86800
16:19:08.652,,-9520,190400,88200
16:19:08.662,,-5880,190120,88480
16:19:08.672,,-1820,187390,88970
16:19:08.682,,210,189560,95270
16:19:08.692,,910,193270,99400
16:19:08.702,,560,198730,104020
16:19:08.712,,490,202510,107730
16:19:08.722,,5460,204960,111720
16:19:08.732,,16450,203210,116690
16:19:08.742,,24990,197680,121450
16:19:08.752,,30100,191870,125580
16:19:08.762,,34160,187670,129500
16:19:08.772,,40670,184380,132440
16:19:08.782,,51240,182070,132440
16:19:08.792,,64400,177030,127540
16:19:08.802,,75740,167790,118930
16:19:08.812,,82810,146510,99890
16:19:08.822,,78820,143220,91630
16:19:08.832,,61460,147070,86520
16:19:08.842,,41720,144970,82320
16:19:08.852,,23800,133980,80150
16:19:08.862,,8190,114310,77910
16:19:08.872,,-1260,88760,74270
16:19:08.882,,70,60550,69860
16:19:08.892,,10010,33390,64820
16:19:08.902,,21770,10010,59150
16:19:08.912,,33670,-10500,52920
16:19:08.922,,47740,-27090,45640
16:19:09.043,,33810,-119560,-30310
16:19:09.044,,30240,-124110,-34580
16:19:09.046,,30240,-124110,-34580
16:19:09.047,,30240,-124110,-34580
16:19:09.048,,30240,-124110,-34580
16:19:09.050,,30240,-124110,-34580
16:19:09.051,,30240,-124110,-34580
16:19:09.053,,30240,-124110,-34580
16:19:09.054,,27230,-128940,-38850
16:19:09.055,,27230,-128940,-38850
16:19:09.057,,27230,-128940,-38850
16:19:09.058,,27230,-128940,-38850
16:19:09.059,,27230,-128940,-38850
16:19:09.062,,27230,-128940,-38850
16:19:09.072,,23310,-142590,-46550
16:19:09.082,,21770,-152530,-49350
16:19:09.092,,21210,-163310,-51380
16:19:09.102,,23380,-172620,-52710
16:19:09.112,,28280,-180880,-53550
16:19:09.122,,35210,-187950,-53690
16:19:09.132,,41090,-191590,-51940
16:19:09.142,,42280,-192570,-48370
16:19:09.152,,39620,-192150,-44030
16:19:09.162,,33460,-191520,-40250
16:19:09.172,,21490,-188720,-38150
16:19:09.182,,8190,-186900,-36120
16:19:09.192,,-70,-187390,-34370
16:19:09.202,,2520,-185010,-35700
16:19:09.212,,8960,-185500,-36120
16:19:09.222,,15820,-185990,-35140
16:19:09.232,,18690,-183400,-31920
16:19:09.242,,15750,-178570,-26390
16:19:09.252,,6020,-171710,-21840
16:19:09.262,,-6230,-164080,-22960
16:19:09.272,,-8540,-158550,-25060
16:19:09.282,,-2940,-157010,-27650
16:19:09.292,,3710,-159950,-31920
16:19:09.302,,8540,-164780,-34440
16:19:09.312,,10430,-167860,-31010
16:19:09.322,,6160,-160650,-18410
16:19:09.332,,-9660,-153300,-15680
16:19:09.342,,-10850,-144760,-17990
16:19:09.352,,-6720,-139090,-22680
16:19:09.362,,-280,-137130,-28490
16:19:09.372,,4830,-137690,-33320
16:19:09.382,,6930,-140420,-34440
16:19:09.392,,6510,-145880,-33740
16:19:09.402,,5460,-153580,-31920
16:19:09.412,,2310,-161070,-30590
16:19:09.422,,-3640,-163940,-31640
16:19:09.432,,-12950,-159600,-31010
16:19:09.442,,-18480,-152180,-31010
16:19:09.452,,-24150,-133420,-36260
16:19:09.462,,-39550,-124880,-35770
16:19:09.472,,-47390,-118020,-33390
16:19:09.482,,-45850,-115990,-29540
16:19:09.492,,-30450,-118790,-19670
16:19:09.502,,-40320,-100170,-15330
16:19:09.512,,-64610,-74410,-12600
16:19:09.522,,-81900,-56070,-6930
16:19:09.532,,-81550,-49000,-9870
16:19:09.542,,-70000,-46200,-18690
16:19:09.552,,-61950,-41860,-23660
16:19:09.562,,-66010,-32970,-21840
16:19:09.572,,-77210,-22190,-19320
16:19:09.582,,-80920,-11060,-14770
16:19:09.592,,-71750,-7210,-8540
16:19:09.602,,-65450,2590,-4970
16:19:09.612,,-63210,15330,-4340
16:19:09.622,,-60970,27230,-3570
16:19:09.632,,-64050,38290,-2660
16:19:09.642,,-71050,48160,-1540
16:19:09.652,,-77840,55650,280
16:19:09.662,,-84070,63560,5110
16:19:09.672,,-88830,71190,12670
16:19:09.682,,-86310,77140,18550
16:19:09.692,,-77420,80920,22050
16:19:09.702,,-69860,87080,24010
16:19:09.712,,-66850,102760,18550
16:19:09.722,,-71120,105700,12460
16:19:09.732,,-75600,103670,8680
16:19:09.742,,-77210,96880,7770
16:19:09.752,,-82180,90230,9800
16:19:09.762,,-86030,85470,17780
16:19:09.772,,-89390,88130,29890
16:19:09.782,,-83440,91700,43470
16:19:09.792,,-76510,98910,53830
16:19:09.802,,-69790,109340,61180
16:19:09.812,,-56350,115430,61950
16:19:09.822,,-46970,120050,60480
16:19:09.832,,-38430,124600,62300
16:19:09.842,,-36750,132440,69090
16:19:09.852,,-39690,133630,70350
16:19:09.862,,-42350,132230,71610
16:19:09.872,,-41510,129920,74830
16:19:09.882,,-37100,129570,78890
16:19:09.892,,-29190,130900,82740
16:19:09.902,,-24150,133490,85680
16:19:09.912,,-20440,132930,87780
16:19:09.922,,-16170,130760,89810
16:19:09.932,,-10010,127890,91910
16:19:09.942,,-7980,127820,91980
16:19:09.952,,-12320,132020,90790
16:19:09.962,,-18130,135030,92330
16:19:09.972,,-18410,140420,100030
16:19:09.982,,-17990,147280,106400
16:19:09.992,,-13930,152250,107800
16:19:10.002,,-7700,154840,107870
16:19:10.012,,-1120,156590,111650
16:19:10.022,,1960,161350,116760
16:19:10.032,,5110,164780,122780
16:19:10.042,,13090,165200,128170
16:19:10.052,,24220,165830,131950
16:19:10.062,,32760,168350,132930
16:19:10.072,,36960,171850,133560
16:19:10.082,,38570,174300,134540
16:19:10.092,,40530,172830,137060
16:19:10.102,,46060,171640,138180
16:19:10.112,,46200,169820,137970
16:19:10.245,,40530,39060,76860
16:19:10.246,,40530,39060,76860
16:19:10.248,,40530,39060,76860
16:19:10.249,,40530,39060,76860
16:19:10.251,,36890,19250,68110
16:19:10.252,,36890,19250,68110
16:19:10.253,,36890,19250,68110
16:19:10.255,,36890,19250,68110
16:19:10.256,,36890,19250,68110
16:19:10.257,,36890,19250,68110
16:19:10.259,,36890,2310,59010
16:19:10.260,,31010,2310,59010
16:19:10.262,,31010,2310,59010
16:19:10.263,,31010,2310,59010
16:19:10.264,,31010,2310,59010
16:19:10.272,,27440,-11340,50190
16:19:10.282,,25480,-21980,42140
16:19:10.292,,24010,-30170,34860
16:19:10.302,,23240,-38150,27510
16:19:10.312,,22330,-47180,22050
16:19:10.322,,24360,-57820,13440
16:19:10.332,,28210,-70070,6580
16:19:10.342,,29470,-82740,210
16:19:10.352,,32200,-110460,-15540
16:19:10.362,,33110,-125020,-24850
16:19:10.372,,33390,-139230,-34160
16:19:10.382,,33110,-152390,-41790
16:19:10.392,,31990,-163800,-47460
16:19:10.402,,30100,-172620,-51450
16:19:10.412,,25830,-179480,-52990
16:19:10.422,,20720,-184100,-53060
16:19:10.432,,11480,-185290,-51030
16:19:10.442,,2800,-184870,-48930
16:19:10.452,,-4340,-183750,-49280
16:19:10.462,,-10570,-183190,-54110
16:19:10.472,,-10080,-185710,-61040
16:19:10.482,,8540,-195160,-67900
16:19:10.492,,15330,-198660,-68390
16:19:10.502,,22750,-199850,-68040
16:19:10.512,,29680,-200480,-65590
16:19:10.522,,33250,-202510,-61950
16:19:10.532,,31570,-207200,-58100
16:19:10.542,,26530,-213010,-54460
16:19:10.552,,23520,-215390,-50260
16:19:10.562,,24570,-211890,-45920
16:19:10.572,,24430,-205100,-42980
16:19:10.582,,18340,-196140,-44100
16:19:10.592,,11690,-189700,-47880
16:19:10.602,,4340,-185920,-52710
16:19:10.612,,-5110,-176190,-54110
16:19:10.622,,-2030,-170870,-54040
16:19:10.632,,3640,-168070,-54390
16:19:10.642,,8750,-167160,-56840
16:19:10.652,,12950,-167020,-59920
16:19:10.662,,16240,-169330,-61530
16:19:10.672,,15470,-172340,-61110
16:19:10.682,,5250,-172550,-59850
16:19:10.692,,-8050,-169470,-59360
16:19:10.702,,-17220,-162540,-58310
16:19:10.712,,-24150,-154350,-57050
16:19:10.722,,-35350,-146860,-58870
16:19:10.732,,-45500,-140140,-57820
16:19:10.742,,-27510,-141960,-60830
16:19:10.752,,-15680,-143080,-61670
16:19:10.762,,-10150,-138180,-60900
16:19:10.772,,-6440,-131670,-57330
16:19:10.782,,-8470,-125020,-50960
16:19:10.792,,-15960,-118860,-46060
16:19:10.802,,-20090,-114100,-44520
16:19:10.812,,-17570,-111650,-45220
16:19:10.822,,-7840,-110530,-46550
16:19:10.832,,5040,-109130,-48090
16:19:10.842,,15050,-106750,-49840
16:19:10.852,,19670,-102620,-48440
16:19:10.862,,28630,-95620,-33810
16:19:10.872,,11410,-84280,-35350
16:19:10.882,,-560,-80220,-30310
16:19:10.892,,-17570,-72310,-20510
16:19:10.902,,-33390,-66360,-19040
16:19:10.912,,-37660,-64330,-24990
16:19:10.922,,-33530,-65170,-23590
16:19:10.932,,-34440,-57960,-22750
16:19:10.942,,-33810,-48370,-23310
16:19:10.952,,-24570,-41650,-20440
16:19:10.962,,-23240,-30660,-16100
16:19:10.972,,-24780,-19180,-11550
16:19:10.982,,-22190,-11690,-7070
16:19:10.992,,-17640,6930,1050
16:19:11.002,,-18130,18200,4270
16:19:11.012,,-19110,27020,7210
16:19:11.022,,-22890,33040,7700
16:19:11.032,,-28700,36750,6720
16:19:11.042,,-36680,39690,7980
16:19:11.052,,-49910,43120,9100
16:19:11.062,,-63420,48510,11130
16:19:11.072,,-77210,55580,13790
16:19:11.082,,-88760,62510,14350
16:19:11.092,,-92470,67550,14420
16:19:11.102,,-92960,73850,15820
16:19:11.112,,-97090,81620,17850
16:19:11.122,,-109550,92960,24570
16:19:11.132,,-112140,95550,27370
16:19:11.142,,-111510,97650,29890
16:19:11.152,,-108710,99820,32830
16:19:11.162,,-104720,101360,35560
16:19:11.172,,-100520,102830,38990
16:19:11.182,,-97720,105490,42910
16:19:11.192,,-98140,110810,46410
16:19:11.202,,-100590,117250,46340
16:19:11.212,,-90230,115080,48720
16:19:11.222,,-84840,116480,56350
16:19:11.232,,-89530,122780,61460
16:19:11.242,,-78820,116970,61040
16:19:11.252,,-47390,104650,64890
16:19:11.262,,-46480,109340,66780
16:19:11.272,,-44170,113680,68740
16:19:11.282,,-42210,115780,70630
16:19:11.292,,-41230,118370,71330
16:19:11.302,,-34440,118090,73010
16:19:11.312,,-30450,118510,77490
16:19:11.322,,-27580,117950,82460
16:19:11.442,,14980,145530,125930
16:19:11.444,,14980,145530,125930
16:19:11.445,,14980,145530,125930
16:19:11.446,,17710,148750,130900
16:19:11.448,,17710,148750,130900
16:19:11.449,,17710,148750,130900
16:19:11.450,,17710,148750,130900
16:19:11.452,,17710,148750,130900
16:19:11.453,,17710,148750,130900
16:19:11.455,,17710,148750,130900
16:19:11.456,,16800,151970,137410
16:19:11.457,,16800,151970,137410
16:19:11.459,,16800,151970,137410
16:19:11.462,,16800,151970,137410
16:19:11.472,,14490,155470,142030
16:19:11.482,,15750,160650,144830
16:19:11.492,,20440,166040,146580
16:19:11.502,,23660,177520,156030
16:19:11.512,,17080,185640,161700
16:19:11.522,,16380,192360,164430
16:19:11.532,,23520,196490,164290
16:19:11.542,,35840,197190,165060
16:19:11.552,,46690,195790,165550
16:19:11.562,,52290,193200,165130
16:19:11.572,,55580,190330,164360
16:19:11.582,,58940,187250,158970
16:19:11.592,,65660,181650,151270
16:19:11.602,,70980,172060,145390
16:19:11.612,,73780,161910,137830
16:19:11.622,,74130,151340,131880
16:19:11.632,,50610,118370,126350
16:19:11.642,,33530,101430,121730
16:19:11.652,,26320,86520,115710
16:19:11.662,,29190,70350,108430
16:19:11.672,,35140,55160,99610
16:19:11.682,,39410,42140,90720
16:19:11.692,,41790,29120,82320
16:19:11.702,,42210,16660,72870
16:19:11.712,,42560,4200,61740
16:19:11.722,,43680,-9870,50190
16:19:11.732,,44240,-25130,37380
16:19:11.742,,44310,-41020,24780
16:19:11.752,,42280,-55160,13300
16:19:11.762,,32550,-68810,-7070
16:19:11.772,,25130,-67970,-10500
16:19:11.782,,18270,-66570,-13510
16:19:11.792,,9660,-67690,-15540
16:19:11.802,,3990,-73500,-15960
16:19:11.812,,2100,-84140,-17500
16:19:11.822,,4550,-98980,-20370
16:19:11.832,,9100,-115150,-24500
16:19:11.842,,15190,-131950,-30240
16:19:11.852,,22750,-147560,-36330
16:19:11.862,,28840,-158270,-42070
16:19:11.872,,28980,-164570,-45710
16:19:11.882,,24010,-168630,-49980
16:19:11.892,,23310,-178570,-61180
16:19:11.902,,15400,-182420,-62650
16:19:11.912,,9310,-188510,-63350
16:19:11.922,,5950,-197050,-64050
16:19:11.932,,1960,-203070,-64120
16:19:11.942,,-6510,-202300,-65170
16:19:11.952,,-12180,-197890,-64400
16:19:11.962,,-11270,-192850,-62160
16:19:11.972,,-5320,-186970,-62510
16:19:11.982,,910,-182700,-62930
16:19:11.992,,5740,-181440,-60200
16:19:12.002,,7700,-182560,-55510
16:19:12.012,,4410,-185080,-45150
16:19:12.022,,-20300,-182280,-38850
16:19:12.032,,-32130,-179060,-34440
16:19:12.042,,-38850,-177170,-35000
16:19:12.052,,-38220,-178570,-38990
16:19:12.062,,-31220,-186060,-43400
16:19:12.072,,-20020,-200760,-45920
16:19:12.082,,-7420,-219870,-48020
16:19:12.092,,4760,-235620,-50750
16:19:12.102,,12530,-245210,-52500
16:19:12.112,,11340,-250320,-49700
16:19:12.122,,3640,-249270,-42490
16:19:12.132,,-4340,-239610,-35350
16:19:12.142,,-8470,-225120,-30170
16:19:12.152,,-7280,-207480,-34510
16:19:12.162,,-2660,-208600,-40600
16:19:12.172,,7630,-215880,-47600
16:19:12.182,,19250,-224560,-54110
16:19:12.192,,26670,-229740,-57260
16:19:12.202,,27230,-227500,-54390
16:19:12.212,,19530,-218960,-47600
16:19:12.222,,3850,-205380,-39970
16:19:12.232,,-14420,-190400,-31990
16:19:12.242,,-28000,-176820,-25760
16:19:12.252,,-37380,-167510,-22680
16:19:12.262,,-45010,-162260,-23170
16:19:12.272,,-49630,-150570,-29820
16:19:12.282,,-27230,-148960,-25480
16:19:12.292,,-21560,-133560,-16310
16:19:12.302,,-49630,-95130,-11760
16:19:12.312,,-83720,-59640,-1400
16:19:12.322,,-102620,-40390,6440
16:19:12.332,,-107870,-40250,-630
16:19:12.342,,-93030,-50750,-13790
16:19:12.352,,-77140,-54740,-19740
16:19:12.362,,-77840,-46760,-21350
16:19:12.372,,-84350,-35070,-19880
16:19:12.382,,-78400,-29120,-14910
16:19:12.392,,-59640,-26250,-7770
16:19:12.402,,-50120,-1680,1330
16:19:12.412,,-44380,10850,-140
16:19:12.422,,-39410,19460,-5320
16:19:12.432,,-39620,29750,-9380
16:19:12.442,,-39620,39340,-11760
16:19:12.452,,-39760,47110,-12740
16:19:12.462,,-39340,54740,-7770
16:19:12.472,,-48440,66220,-140
16:19:12.482,,-61460,74270,7980
16:19:12.492,,-70980,79520,17640
16:19:12.502,,-70280,78610,17920
16:19:12.512,,-65450,76090,14560
16:19:12.522,,-64260,78330,10080
16:19:12.647,,-39480,127960,42700
16:19:12.648,,-39480,127960,42700
16:19:12.649,,-39480,127960,42700
16:19:12.651,,-39480,127960,42700
16:19:12.652,,-44030,130270,43050
16:19:12.654,,-44030,130270,43050
16:19:12.655,,-44030,130270,43050
16:19:12.656,,-44030,130270,43050
16:19:12.658,,-44030,130270,43050
16:19:12.659,,-44030,130270,43050
16:19:12.660,,-44030,130270,43050
16:19:12.662,,-48790,132580,45850
16:19:12.663,,-48790,132580,45850
16:19:12.665,,-48790,132580,45850
16:19:12.672,,-54110,134750,52710
16:19:12.682,,-61040,139160,57820
16:19:12.692,,-63350,142590,59920
16:19:12.702,,-56350,142940,60620
16:19:12.712,,-43330,140840,60970
16:19:12.722,,-27790,137760,62160
16:19:12.732,,-12320,135170,65590
16:19:12.742,,-2380,135380,69510
16:19:12.752,,-910,139790,73220
16:19:12.762,,-3150,144340,75880
16:19:12.772,,-4900,147560,77910
16:19:12.782,,-7490,151060,82250
16:19:12.792,,-11130,153860,84420
16:19:12.802,,-8400,154070,86800
16:19:12.812,,-3640,154420,89460
16:19:12.822,,2170,155190,93030
16:19:12.832,,6790,158130,96390
16:19:12.842,,7630,163380,98700
16:19:12.852,,5600,170730,100240
16:19:12.862,,4900,177240,102760
16:19:12.872,,7350,179550,106680
16:19:12.882,,12250,181160,109760
16:19:12.892,,19600,186340,112840
16:19:12.902,,29400,192710,113890
16:19:12.912,,38150,203770,126350
16:19:12.922,,30380,213080,131110
16:19:12.932,,25760,221970,136010
16:19:12.942,,25410,227640,141190
16:19:12.952,,29330,229670,143780
16:19:12.962,,38710,230580,145250
16:19:12.972,,54040,227220,145250
16:19:12.982,,73710,218470,142870
16:19:12.992,,89880,206360,141050
16:19:13.002,,89880,201530,140070
16:19:13.012,,65100,213220,141680
16:19:13.022,,32830,221130,139370
16:19:13.032,,14420,211960,134120
16:19:13.042,,22610,172550,115220
16:19:13.052,,28350,148750,103390
16:19:13.062,,27440,122150,92260
16:19:13.072,,23520,95690,82810
16:19:13.082,,19390,73990,74690
16:19:13.092,,14350,59220,67410
16:19:13.102,,10780,46830,60830
16:19:13.112,,10710,32830,55230
16:19:13.122,,11060,17500,50190
16:19:13.132,,11340,1470,44800
16:19:13.142,,12880,-15680,38780
16:19:13.152,,15400,-33530,31850
16:19:13.162,,19810,-51800,24640
16:19:13.172,,25620,-84420,8190
16:19:13.182,,26250,-95760,140
16:19:13.192,,28490,-103810,-7140
16:19:13.202,,32760,-111930,-14630
16:19:13.212,,36820,-122500,-22540
16:19:13.222,,39480,-136150,-30590
16:19:13.232,,40390,-153720,-37870
16:19:13.242,,40670,-175210,-44730
16:19:13.252,,41790,-196280,-51450
16:19:13.262,,42490,-213080,-57820
16:19:13.272,,41440,-226100,-62720
16:19:13.282,,38150,-236040,-66290
16:19:13.292,,33810,-242410,-69160
16:19:13.302,,27300,-250110,-75530
16:19:13.312,,26880,-253680,-77630
16:19:13.322,,29330,-255990,-79380
16:19:13.332,,34510,-256970,-80780
16:19:13.342,,38640,-257740,-82110
16:19:13.352,,39200,-257880,-81270
16:19:13.362,,32900,-257320,-77350
16:19:13.372,,16870,-252490,-71540
16:19:13.382,,-2170,-241570,-66010
16:19:13.392,,-17290,-228130,-61600
16:19:13.402,,-24570,-217280,-57960
16:19:13.412,,-19180,-208040,-55300
16:19:13.422,,-3990,-200690,-52570
16:19:13.432,,26810,-191450,-52710
16:19:13.442,,38570,-187390,-52220
16:19:13.452,,46550,-184660,-48860
16:19:13.462,,48580,-183960,-44520
16:19:13.472,,46830,-184590,-40460
16:19:13.482,,44170,-184100,-37870
16:19:13.492,,42280,-182420,-32620
16:19:13.502,,39620,-180320,-26670
16:19:13.512,,33320,-177310,-23170
16:19:13.522,,26390,-173600,-23030
16:19:13.532,,27020,-171080,-23800
16:19:13.542,,32200,-171710,-24570
16:19:13.552,,37240,-174020,-26810
16:19:13.562,,33880,-166810,-24500
16:19:13.572,,26110,-161490,-19530
16:19:13.582,,16940,-159670,-13160
16:19:13.591,,6860,-157920,-7350
16:19:13.602,,-2660,-155330,-4060
16:19:13.612,,-6930,-152320,-2800
16:19:13.621,,-4900,-148190,-4690
16:19:13.632,,-280,-142380,-10290
16:19:13.642,,2940,-136780,-18130
16:19:13.651,,2940,-131810,-24360
16:19:13.662,,560,-125440,-27790
16:19:13.672,,-5600,-116270,-25550
16:19:13.681,,-13370,-99190,-15190
16:19:13.692,,-28910,-91140,-9660
16:19:13.702,,-37730,-82110,-5180
16:19:13.711,,-39900,-76020,-5250
16:19:13.722,,-32480,-72730,-7700
16:19:13.841,,-43750,-21000,-16240
16:19:13.842,,-43750,-21000,-16240
16:19:13.844,,-43750,-21000,-16240
16:19:13.845,,-43750,-21000,-16240
16:19:13.847,,-43750,-21000,-16240
16:19:13.848,,-43750,-21000,-16240
16:19:13.849,,-35000,-9100,-7420
16:19:13.851,,-35000,-9100,-7420
16:19:13.852,,-35000,-9100,-7420
16:19:13.853,,-35000,-9100,-7420
16:19:13.855,,-35000,-9100,-7420
16:19:13.856,,-35000,-9100,-7420
16:19:13.858,,-35000,-9100,-350
16:19:13.861,,-32060,6160,-350
16:19:13.872,,-33600,21910,4270
16:19:13.881,,-47740,37940,3640
16:19:13.891,,-65870,47250,1750
16:19:13.901,,-83440,52920,700
16:19:13.911,,-93940,53340,840
16:19:13.921,,-101570,54880,1120
16:19:13.931,,-98980,53550,1470
16:19:13.941,,-96040,65730,490
16:19:13.951,,-97230,75670,2380
16:19:13.961,,-98210,84490,5530
16:19:13.971,,-100800,91560,8540
16:19:13.981,,-98770,93240,11270
16:19:13.991,,-95690,92960,14420
16:19:14.001,,-96320,95130,16940
16:19:14.011,,-97790,98070,18900
16:19:14.021,,-92400,97930,22400
16:19:14.031,,-81130,97440,26600
16:19:14.041,,-74550,101290,27370
16:19:14.051,,-67480,104580,26670
16:19:14.061,,-59990,107310,27090
16:19:14.071,,-51450,111370,37940
16:19:14.081,,-47460,110740,41370
16:19:14.091,,-40180,110110,44170
16:19:14.101,,-35140,112070,46340
16:19:14.111,,-32130,114870,47600
16:19:14.121,,-29190,116970,48090
16:19:14.131,,-26180,117880,48510
16:19:14.141,,-23590,116480,48160
16:19:14.151,,-20510,112980,47880
16:19:14.161,,-16660,108570,47880
16:19:14.171,,-14210,104370,48160
16:19:14.181,,-15050,101570,49140
16:19:14.191,,-19880,102060,52780
16:19:14.201,,-28280,106470,54320
16:19:14.211,,-26390,107940,55580
16:19:14.221,,-23520,109480,55720
16:19:14.231,,-20440,109690,55020
16:19:14.241,,-16590,106960,54880
16:19:14.251,,-12810,102760,55860
16:19:14.261,,-9170,98980,58240
16:19:14.271,,-6580,98560,60830
16:19:14.281,,-6650,101430,63210
16:19:14.291,,-7420,104790,65170
16:19:14.301,,-7000,107520,66640
16:19:14.311,,-4900,110530,67830
16:19:14.321,,-1680,114870,68740
16:19:14.331,,8330,115710,68390
16:19:14.341,,13300,115920,68390
16:19:14.351,,16800,115850,68950
16:19:14.361,,19110,117810,67830
16:19:14.371,,18690,121590,69650
16:19:14.381,,15120,125930,71960
16:19:14.391,,11270,129360,74060
16:19:14.401,,9240,132650,77490
16:19:14.411,,8820,137690,81620
16:19:14.421,,9940,143640,84910
16:19:14.431,,13370,149240,86870
16:19:14.441,,17500,154490,90230
16:19:14.451,,21840,164080,97300
16:19:14.461,,25270,168490,100870
16:19:14.471,,31150,171360,104650
16:19:14.481,,38290,175350,109690
16:19:14.491,,44310,180040,114380
16:19:14.501,,49070,182700,118370
16:19:14.511,,53410,180950,120890
16:19:14.521,,58380,176470,119770
16:19:14.531,,64890,171640,116550
16:19:14.541,,71890,166320,112630
16:19:14.551,,74620,160230,108010
16:19:14.561,,68600,155260,102830
16:19:14.571,,56140,149870,96880
16:19:14.581,,30520,123620,86940
16:19:14.591,,15820,107030,81550
16:19:14.601,,2940,90580,75600
16:19:14.611,,-5040,74200,68670
16:19:14.621,,-6020,57540,61600
16:19:14.631,,-3080,41370,55090
16:19:14.641,,1890,27930,49700
16:19:14.651,,8610,17080,45220
16:19:14.661,,14840,7490,41090
16:19:14.671,,15960,-770,37590
16:19:14.681,,10500,-6930,34230
16:19:14.691,,560,-9310,31850
16:19:14.701,,-10010,-8120,31430
16:19:14.711,,-19110,-420,29260
16:19:14.721,,-16170,840,24640
16:19:14.731,,-11970,-1050,21910
16:19:14.741,,-11410,-5110,18760
