Sensors' Acquisition [Hz]: Acc@104.0 
hh:mm:ss.ms, Annotation , AccX [mg], AccY, AccZ
17:17:53.336,,-87,186,946
17:17:53.346,,-84,188,951
17:17:53.356,,-103,211,965
17:17:53.366,,-112,208,975
17:17:53.376,,-109,205,976
17:17:53.386,,-105,202,977
17:17:53.396,,-106,200,972
17:17:53.406,,-106,206,968
17:17:53.416,,-108,221,969
17:17:53.426,>Stationary,,,
17:17:53.428,,-110,235,969
17:17:53.436,,-112,233,962
17:17:53.446,,-103,222,957
17:17:53.456,,-94,219,949
17:17:53.466,,-93,221,940
17:17:53.476,,-93,225,943
17:17:53.486,,-102,238,945
17:17:53.496,,-101,239,957
17:17:53.506,,-104,238,965
17:17:53.516,,-103,239,976
17:17:53.526,,-95,239,982
17:17:53.536,,-92,240,986
17:17:53.546,,-96,241,991
17:17:53.556,,-97,247,990
17:17:53.566,,-96,249,985
17:17:53.576,,-85,244,975
17:17:53.586,,-81,249,966
17:17:53.596,,-89,249,967
17:17:53.606,,-88,244,972
17:17:53.616,,-79,249,968
17:17:53.626,,-76,251,966
17:17:53.636,,-78,242,965
17:17:53.646,,-72,236,963
17:17:53.656,,-74,233,961
17:17:53.666,,-78,227,958
17:17:53.676,,-80,221,961
17:17:53.686,,-85,215,965
17:17:53.696,,-83,206,965
17:17:53.706,,-84,209,965
17:17:53.716,,-88,224,967
17:17:53.726,,-102,233,975
17:17:53.736,,-101,223,982
17:17:53.746,,-93,218,980
17:17:53.756,,-91,213,973
17:17:53.766,,-87,211,965
17:17:53.776,,-88,215,961
17:17:53.786,,-93,219,957
17:17:53.796,,-95,218,958
17:17:53.806,,-96,219,959
17:17:53.816,,-101,218,962
17:17:53.826,,-105,216,971
17:17:53.836,,-109,220,979
17:17:53.846,,-110,231,982
17:17:53.856,,-112,244,982
17:17:53.866,,-106,239,968
17:17:53.876,,-96,234,954
17:17:53.886,,-84,234,942
17:17:53.896,,-88,236,940
17:17:53.906,,-98,231,946
17:17:53.916,,-102,220,954
17:17:53.926,,-101,215,960
17:17:53.936,,-97,214,967
17:17:53.946,,-96,218,974
17:17:53.956,,-95,226,983
17:17:53.966,,-95,233,989
17:17:53.976,,-92,232,991
17:17:53.986,,-84,230,991
17:17:53.996,,-95,245,993
17:17:54.006,,-96,243,993
17:17:54.016,,-95,237,989
17:17:54.026,,-90,235,974
17:17:54.036,,-83,232,956
17:17:54.046,,-94,225,955
17:17:54.056,,-114,223,960
17:17:54.066,,-116,214,962
17:17:54.076,,-97,199,956
17:17:54.086,,-74,184,948
17:17:54.096,,-56,165,944
17:17:54.106,,-52,160,941
17:17:54.116,,-47,166,929
17:17:54.126,,-46,183,932
17:17:54.136,,-56,199,945
17:17:54.146,,-70,220,968
17:17:54.156,,-88,230,995
17:17:54.166,,-106,235,1013
17:17:54.176,,-112,241,1027
17:17:54.186,,-108,247,1033
17:17:54.196,,-113,244,1040
17:17:54.206,,-121,242,1035
17:17:54.216,,-116,244,1020
17:17:54.226,,-108,244,1001
17:17:54.236,,-104,232,980
17:17:54.246,,-101,211,958
17:17:54.256,,-110,206,949
17:17:54.266,,-104,191,938
17:17:54.276,,-96,175,935
17:17:54.286,,-96,168,939
17:17:54.296,,-110,168,944
17:17:54.306,,-118,173,949
17:17:54.316,,-123,175,954
17:17:54.326,,-122,171,963
17:17:54.336,,-118,169,964
17:17:54.346,,-119,173,963
17:17:54.356,,-124,186,964
17:17:54.366,,-125,205,967
17:17:54.376,,-143,231,988
17:17:54.386,,-139,225,991
17:17:54.396,,-125,224,986
17:17:54.406,,-117,221,980
17:17:54.416,,-112,218,981
17:17:54.426,,-124,217,983
17:17:54.436,,-125,209,986
17:17:54.446,,-114,195,989
17:17:54.456,,-103,190,979
17:17:54.466,,-98,189,977
17:17:54.476,,-101,193,952
17:17:54.486,,-96,185,978
17:17:54.496,,-109,195,950
17:17:54.506,,-116,184,961
17:17:54.516,,-115,185,963
17:17:54.526,,-110,193,965
17:17:54.536,,-116,196,966
17:17:54.546,,-121,195,965
17:17:54.556,,-116,187,961
17:17:54.566,,-114,176,955
17:17:54.576,,-120,173,954
17:17:54.586,,-120,184,957
17:17:54.596,,-124,200,952
17:17:54.606,,-138,204,950
17:17:54.616,,-131,188,967
17:17:54.626,,-126,182,973
17:17:54.636,,-116,195,974
17:17:54.646,,-122,203,971
17:17:54.656,,-121,211,976
17:17:54.666,,-122,212,979
17:17:54.676,,-120,203,973
17:17:54.686,,-110,195,968
17:17:54.696,,-105,199,967
17:17:54.706,,-110,199,976
17:17:54.716,,-112,195,974
17:17:54.726,,-109,198,972
17:17:54.736,,-108,196,969
17:17:54.746,,-103,191,971
17:17:54.756,,-107,189,980
17:17:54.766,,-111,177,979
17:17:54.776,,-106,172,977
17:17:54.786,,-105,175,975
17:17:54.796,,-105,181,969
17:17:54.806,,-104,189,968
17:17:54.816,,-105,193,968
17:17:54.826,,-104,194,965
17:17:54.947,,-98,187,994
17:17:54.948,,-98,187,994
17:17:54.950,,-98,187,994
17:17:54.951,,-98,179,990
17:17:54.953,,-94,179,990
17:17:54.954,,-94,179,990
17:17:54.955,,-94,179,990
17:17:54.957,,-94,179,990
17:17:54.958,,-94,179,990
17:17:54.959,,-94,179,990
17:17:54.961,,-90,176,984
17:17:54.962,,-90,176,984
17:17:54.963,,-90,176,984
17:17:54.966,,-90,176,984
17:17:54.976,,-86,181,980
17:17:54.986,,-85,189,976
17:17:54.996,,-89,193,972
17:17:55.006,,-88,191,970
17:17:55.016,,-85,190,964
17:17:55.026,,-86,189,966
17:17:55.036,,-87,191,967
17:17:55.046,,-89,192,971
17:17:55.056,,-89,193,972
17:17:55.066,,-91,193,974
17:17:55.076,,-92,190,978
17:17:55.086,,-92,190,982
17:17:55.096,,-93,189,982
17:17:55.106,,-89,188,983
17:17:55.116,,-86,189,983
17:17:55.126,,-87,191,985
17:17:55.136,,-90,189,984
17:17:55.146,,-89,180,972
17:17:55.156,,-88,177,967
17:17:55.166,,-85,175,962
17:17:55.176,,-82,183,960
17:17:55.186,,-86,188,958
17:17:55.196,,-87,188,961
17:17:55.206,,-85,189,968
17:17:55.216,,-86,192,975
17:17:55.226,,-89,192,984
17:17:55.236,,-90,190,989
17:17:55.246,,-86,191,990
17:17:55.256,,-87,194,992
17:17:55.266,,-89,197,992
17:17:55.276,,-88,210,986
17:17:55.286,,-87,208,985
17:17:55.296,,-85,202,985
17:17:55.306,,-80,197,981
17:17:55.316,,-75,197,980
17:17:55.326,,-78,194,980
17:17:55.336,,-80,187,980
17:17:55.346,,-77,181,979
17:17:55.356,,-75,181,978
17:17:55.366,,-77,185,974
17:17:55.376,,-79,188,970
17:17:55.386,,-81,185,967
17:17:55.396,,-83,180,969
17:17:55.406,,-85,182,969
17:17:55.416,,-85,189,969
17:17:55.426,,-87,193,971
17:17:55.436,,-91,195,974
17:17:55.446,,-96,189,980
17:17:55.456,,-94,185,983
17:17:55.466,,-95,188,981
17:17:55.476,,-94,186,978
17:17:55.486,,-92,183,977
17:17:55.496,,-92,182,978
17:17:55.506,,-89,184,975
17:17:55.516,,-85,192,973
17:17:55.526,,-86,189,971
17:17:55.536,,-82,186,972
17:17:55.546,,-81,191,972
17:17:55.556,,-84,193,970
17:17:55.566,,-81,193,969
17:17:55.576,,-78,193,971
17:17:55.586,,-81,190,976
17:17:55.596,,-87,184,981
17:17:55.606,,-86,182,981
17:17:55.616,,-80,186,981
17:17:55.626,,-79,193,978
17:17:55.636,,-84,195,977
17:17:55.646,,-85,197,979
17:17:55.656,,-87,197,979
17:17:55.666,,-84,195,978
17:17:55.676,,-81,199,979
17:17:55.686,,-85,203,979
17:17:55.696,,-88,197,978
17:17:55.706,,-84,190,979
17:17:55.716,,-83,191,979
17:17:55.726,,-83,190,974
17:17:55.736,,-80,190,974
17:17:55.746,,-81,192,975
17:17:55.756,,-84,192,978
17:17:55.766,,-85,187,978
17:17:55.776,,-78,185,976
17:17:55.786,,-78,196,973
17:17:55.796,,-87,196,974
17:17:55.806,,-87,192,977
17:17:55.816,,-83,190,977
17:17:55.826,,-82,187,973
17:17:55.836,,-81,183,973
17:17:55.846,,-82,182,974
17:17:55.856,,-81,183,976
17:17:55.866,,-80,185,977
17:17:55.876,,-79,189,975
17:17:55.886,,-76,191,976
17:17:55.896,,-78,195,978
17:17:55.906,,-82,194,979
17:17:55.916,,-79,195,979
17:17:55.926,,-80,198,979
17:17:55.936,,-80,199,980
17:17:55.946,,-82,198,978
17:17:55.956,,-81,193,975
17:17:55.966,,-78,185,971
17:17:55.976,,-73,185,970
17:17:55.986,,-75,195,971
17:17:55.996,,-82,195,973
17:17:56.006,,-80,190,977
17:17:56.016,,-77,190,980
17:17:56.026,,-76,192,978
17:17:56.036,,-79,193,977
17:17:56.046,,-78,192,976
17:17:56.056,,-79,190,977
17:17:56.066,,-79,190,975
17:17:56.076,,-79,192,973
17:17:56.086,,-78,195,973
17:17:56.096,,-83,194,975
17:17:56.106,,-82,187,977
17:17:56.116,,-81,184,979
17:17:56.126,,-79,182,979
17:17:56.136,,-77,184,980
17:17:56.146,,-78,193,979
17:17:56.156,,-81,198,980
17:17:56.166,,-82,195,979
17:17:56.176,,-76,189,976
17:17:56.186,,-77,194,976
17:17:56.196,,-80,195,975
17:17:56.206,,-78,193,978
17:17:56.216,,-76,190,977
17:17:56.226,,-74,189,976
17:17:56.236,,-73,195,978
17:17:56.246,,-76,197,979
17:17:56.256,,-74,196,978
17:17:56.266,,-74,192,977
17:17:56.276,,-74,189,975
17:17:56.286,,-73,189,977
17:17:56.296,,-71,192,975
17:17:56.306,,-70,192,977
17:17:56.316,,-70,195,976
17:17:56.326,,-72,195,974
17:17:56.336,,-71,197,975
17:17:56.346,,-75,199,980
17:17:56.356,,-78,194,981
17:17:56.366,,-75,192,983
17:17:56.376,,-75,192,982
17:17:56.386,,-75,191,981
17:17:56.396,,-75,190,982
17:17:56.406,,-78,193,980
17:17:56.521,,-76,193,985
17:17:56.522,,-76,193,985
17:17:56.524,,-76,193,985
17:17:56.525,,-76,193,985
17:17:56.526,,-76,193,985
17:17:56.528,,-76,193,989
17:17:56.529,,-74,193,989
17:17:56.530,,-74,193,989
17:17:56.532,,-74,193,989
17:17:56.533,,-74,193,989
17:17:56.535,,-74,193,989
17:17:56.536,,-74,193,989
17:17:56.537,,-72,191,991
17:17:56.546,,-72,191,991
17:17:56.556,,-70,188,989
17:17:56.566,,-68,192,986
17:17:56.576,,-67,196,981
17:17:56.586,,-68,199,978
17:17:56.596,,-72,198,974
17:17:56.606,,-72,195,972
17:17:56.616,,-74,192,971
17:17:56.626,,-73,187,967
17:17:56.636,,-71,184,966
17:17:56.646,,-71,184,964
17:17:56.656,,-72,187,963
17:17:56.666,,-76,190,966
17:17:56.676,,-73,193,969
17:17:56.686,,-80,199,979
17:17:56.696,,-78,193,982
17:17:56.706,,-76,192,985
17:17:56.716,,-76,198,986
17:17:56.726,,-80,200,986
17:17:56.736,,-78,199,987
17:17:56.746,,-73,193,985
17:17:56.756,,-70,188,981
17:17:56.766,,-66,188,980
17:17:56.776,,-66,189,976
17:17:56.786,,-64,185,974
17:17:56.796,,-64,184,973
17:17:56.806,,-64,186,969
17:17:56.816,,-67,191,969
17:17:56.826,,-67,193,970
17:17:56.836,,-72,199,973
17:17:56.846,,-74,202,977
17:17:56.856,,-75,197,979
17:17:56.866,,-74,194,981
17:17:56.876,,-76,196,982
17:17:56.886,,-79,195,984
17:17:56.896,,-78,195,984
17:17:56.906,,-77,193,982
17:17:56.916,,-76,193,980
17:17:56.926,,-75,187,977
17:17:56.936,,-71,186,973
17:17:56.946,,-66,189,972
17:17:56.956,,-63,189,972
17:17:56.966,,-63,188,973
17:17:56.976,,-61,186,975
17:17:56.986,,-66,188,976
17:17:56.996,,-69,190,975
17:17:57.006,,-71,196,975
17:17:57.016,,-72,201,974
17:17:57.026,,-74,206,978
17:17:57.036,,-79,209,979
17:17:57.046,,-77,208,981
17:17:57.056,,-73,204,980
17:17:57.066,,-75,202,980
17:17:57.076,,-75,200,979
17:17:57.086,,-73,200,976
17:17:57.096,,-70,201,974
17:17:57.106,,-73,199,973
17:17:57.116,,-71,190,975
17:17:57.126,,-66,187,976
17:17:57.136,,-64,186,977
17:17:57.146,,-65,183,978
17:17:57.156,,-68,182,978
17:17:57.166,,-65,184,979
17:17:57.176,,-65,187,977
17:17:57.186,,-67,190,979
17:17:57.196,,-71,188,984
17:17:57.206,,-68,185,986
17:17:57.216,,-67,188,982
17:17:57.226,,-69,194,978
17:17:57.236,,-73,193,977
17:17:57.246,,-72,192,976
17:17:57.256,,-72,197,974
17:17:57.266,,-76,199,971
17:17:57.276,,-74,199,971
17:17:57.286,,-73,199,970
17:17:57.296,,-72,194,971
17:17:57.306,,-72,189,974
17:17:57.316,,-70,190,975
17:17:57.326,,-70,194,980
17:17:57.336,,-70,190,983
17:17:57.346,,-70,186,983
17:17:57.356,,-68,183,981
17:17:57.366,,-67,188,981
17:17:57.376,,-72,188,980
17:17:57.386,,-69,192,980
17:17:57.396,,-71,197,980
17:17:57.406,,-73,194,979
17:17:57.416,,-69,192,978
17:17:57.426,,-68,191,975
17:17:57.436,,-68,191,975
17:17:57.446,,-69,194,974
17:17:57.456,,-73,196,973
17:17:57.466,,-73,194,975
17:17:57.476,,-73,195,973
17:17:57.486,,-69,197,971
17:17:57.496,,-73,201,969
17:17:57.506,,-73,201,972
17:17:57.516,,-75,200,976
17:17:57.526,,-74,198,977
17:17:57.536,,-73,199,978
17:17:57.546,,-73,200,978
17:17:57.556,,-74,200,979
17:17:57.566,,-74,199,981
17:17:57.576,,-75,193,977
17:17:57.586,,-70,195,976
17:17:57.596,,-72,197,974
17:17:57.606,,-72,197,974
17:17:57.616,,-69,196,974
17:17:57.626,,-70,195,975
17:17:57.636,,-72,193,975
17:17:57.646,,-70,197,977
17:17:57.656,,-70,198,979
17:17:57.666,,-70,199,977
17:17:57.676,,-71,196,979
17:17:57.686,,-73,197,977
17:17:57.696,,-73,200,977
17:17:57.706,,-70,203,975
17:17:57.716,,-74,203,975
17:17:57.726,,-75,200,978
17:17:57.736,,-74,196,980
17:17:57.746,,-72,194,978
17:17:57.756,,-70,191,975
17:17:57.766,,-68,193,974
17:17:57.776,,-71,197,975
17:17:57.786,,-72,193,978
17:17:57.796,,-69,194,978
17:17:57.806,,-68,195,976
17:17:57.816,,-70,196,976
17:17:57.826,,-69,197,975
17:17:57.836,,-72,194,977
17:17:57.846,,-73,193,976
17:17:57.856,,-71,191,974
17:17:57.866,,-71,192,974
17:17:57.876,,-73,192,975
17:17:57.886,,-75,192,976
17:17:57.896,,-74,193,976
17:17:57.906,,-73,195,975
17:17:57.916,,-71,194,972
17:17:57.926,,-70,192,974
17:17:57.936,,-71,194,978
17:17:57.946,,-75,196,979
17:17:57.956,,-77,197,976
17:17:57.966,,-74,192,977
17:17:57.976,,-72,190,977
17:17:58.097,,-74,196,976
17:17:58.098,,-74,196,976
17:17:58.099,,-74,196,976
17:17:58.101,,-74,196,976
17:17:58.102,,-74,196,976
17:17:58.103,,-74,196,976
17:17:58.105,,-73,192,976
17:17:58.106,,-73,192,976
17:17:58.108,,-73,192,976
17:17:58.109,,-73,192,976
17:17:58.110,,-73,192,976
17:17:58.112,,-73,192,976
17:17:58.113,,-73,192,976
17:17:58.116,,-69,189,974
17:17:58.126,,-68,190,974
17:17:58.136,,-70,192,973
17:17:58.146,,-71,192,973
17:17:58.156,,-71,192,975
17:17:58.166,,-71,193,975
17:17:58.176,,-70,195,975
17:17:58.186,,-71,200,977
17:17:58.196,,-74,202,978
17:17:58.206,,-76,199,977
17:17:58.216,,-75,196,978
17:17:58.226,,-72,185,978
17:17:58.236,,-71,187,978
17:17:58.246,,-73,188,978
17:17:58.256,,-72,188,980
17:17:58.266,,-69,190,979
17:17:58.276,,-69,191,975
17:17:58.286,,-69,193,975
17:17:58.296,,-72,193,973
17:17:58.306,,-70,195,973
17:17:58.316,,-72,198,973
17:17:58.326,,-71,197,974
17:17:58.336,,-71,197,976
17:17:58.346,,-72,198,976
17:17:58.356,,-73,196,976
17:17:58.366,,-73,194,981
17:17:58.376,,-74,194,979
17:17:58.386,,-74,195,977
17:17:58.396,,-71,200,979
17:17:58.406,,-75,202,979
17:17:58.416,,-74,199,980
17:17:58.426,,-72,197,978
17:17:58.436,,-72,196,979
17:17:58.446,,-71,192,977
17:17:58.456,,-68,192,975
17:17:58.466,,-70,194,977
17:17:58.476,,-72,200,974
17:17:58.486,,-72,198,974
17:17:58.496,,-72,193,975
17:17:58.506,,-71,192,977
17:17:58.516,,-72,193,975
17:17:58.526,,-72,194,976
17:17:58.536,,-72,195,979
17:17:58.546,,-73,197,978
17:17:58.556,,-73,196,979
17:17:58.566,,-70,196,977
17:17:58.576,,-71,195,974
17:17:58.586,,-72,196,976
17:17:58.596,,-71,198,976
17:17:58.606,,-74,193,974
17:17:58.616,,-71,192,977
17:17:58.626,,-72,194,976
17:17:58.636,,-71,194,976
17:17:58.646,,-70,196,977
17:17:58.656,,-73,198,978
17:17:58.666,,-74,196,978
17:17:58.676,,-73,193,977
17:17:58.686,,-71,194,976
17:17:58.696,,-72,198,974
17:17:58.706,,-72,200,974
17:17:58.716,,-73,201,975
17:17:58.726,,-72,199,977
17:17:58.736,,-70,190,977
17:17:58.746,,-68,191,975
17:17:58.756,,-71,198,974
17:17:58.766,,-74,200,975
17:17:58.776,,-73,196,976
17:17:58.786,,-71,194,977
17:17:58.796,,-72,193,978
17:17:58.806,,-69,190,978
17:17:58.816,,-66,192,978
17:17:58.826,,-64,196,980
17:17:58.836,,-67,203,979
17:17:58.846,,-71,206,980
17:17:58.856,,-74,203,981
17:17:58.866,,-74,196,980
17:17:58.876,,-74,198,977
17:17:58.886,,-72,195,973
17:17:58.896,,-70,193,972
17:17:58.906,,-72,191,973
17:17:58.916,,-72,189,971
17:17:58.926,,-69,186,971
17:17:58.936,,-65,188,972
17:17:58.946,,-68,194,974
17:17:58.956,,-71,198,977
17:17:58.966,,-73,201,978
17:17:58.976,,-73,201,978
17:17:58.986,,-72,196,978
17:17:58.996,,-75,198,979
17:17:59.006,,-75,193,977
17:17:59.016,,-73,192,977
17:17:59.026,,-71,194,977
17:17:59.036,,-72,195,977
17:17:59.046,,-73,192,975
17:17:59.056,,-68,187,975
17:17:59.066,,-66,192,976
17:17:59.076,,-71,195,975
17:17:59.086,,-70,192,974
17:17:59.096,,-68,192,976
17:17:59.106,,-67,197,976
17:17:59.116,,-71,204,979
17:17:59.126,,-72,201,981
17:17:59.136,,-72,196,981
17:17:59.146,,-69,194,981
17:17:59.156,,-70,196,977
17:17:59.166,,-71,195,976
17:17:59.176,,-71,197,977
17:17:59.186,,-73,197,973
17:17:59.196,,-70,197,972
17:17:59.206,,-71,198,972
17:17:59.216,,-71,198,972
17:17:59.226,,-72,199,973
17:17:59.236,,-72,198,975
17:17:59.246,,-73,196,978
17:17:59.256,,-74,192,980
17:17:59.266,,-73,191,977
17:17:59.276,,-70,192,976
17:17:59.286,,-71,192,975
17:17:59.296,,-71,194,972
17:17:59.306,,-68,196,968
17:17:59.316,,-68,201,969
17:17:59.326,,-70,196,977
17:17:59.336,,-71,198,978
17:17:59.346,,-70,201,977
17:17:59.356,,-65,203,978
17:17:59.366,,-70,200,980
17:17:59.376,,-70,195,982
17:17:59.386,,-69,198,978
17:17:59.396,,-70,197,977
17:17:59.406,,-70,196,978
17:17:59.416,,-69,196,979
17:17:59.426,,-71,195,978
17:17:59.436,,-69,191,977
17:17:59.446,,-67,187,978
17:17:59.456,,-67,188,977
17:17:59.466,,-69,189,977
17:17:59.476,,-68,191,975
17:17:59.486,,-67,197,975
17:17:59.496,,-70,199,976
17:17:59.506,,-70,195,979
17:17:59.516,,-71,194,977
17:17:59.526,,-71,198,974
17:17:59.536,,-72,199,974
17:17:59.546,,-71,200,976
17:17:59.556,,-72,199,976
17:17:59.672,,-70,196,975
17:17:59.673,,-68,201,975
17:17:59.674,,-68,201,975
17:17:59.676,,-68,201,975
17:17:59.677,,-68,201,975
17:17:59.678,,-68,201,975
17:17:59.680,,-68,201,975
17:17:59.681,,-68,201,975
17:17:59.683,,-71,201,975
17:17:59.684,,-71,201,975
17:17:59.685,,-71,201,975
17:17:59.687,,-71,201,975
17:17:59.688,,-71,201,975
17:17:59.696,,-72,192,977
17:17:59.706,,-69,188,978
17:17:59.716,,-69,192,976
17:17:59.726,,-69,195,975
17:17:59.736,,-68,198,978
17:17:59.746,,-71,199,979
17:17:59.756,,-70,196,977
17:17:59.766,,-69,199,976
17:17:59.776,,-70,198,975
17:17:59.786,,-72,199,976
17:17:59.796,,-73,197,975
17:17:59.806,,-71,197,974
17:17:59.816,,-68,195,973
17:17:59.826,,-68,192,974
17:17:59.836,,-70,192,976
17:17:59.846,,-69,189,979
17:17:59.856,,-66,184,977
17:17:59.866,,-64,186,975
17:17:59.876,,-67,192,976
17:17:59.886,,-68,201,975
17:17:59.896,,-68,202,977
17:17:59.906,,-71,200,979
17:17:59.916,,-72,198,979
17:17:59.926,,-70,197,979
17:17:59.936,,-69,199,980
17:17:59.946,,-72,199,979
17:17:59.956,,-70,197,977
17:17:59.966,,-69,196,977
17:17:59.976,,-68,194,974
17:17:59.986,,-67,193,974
17:17:59.996,,-67,195,974
17:18:00.006,,-69,199,975
17:18:00.016,,-68,194,977
17:18:00.026,,-66,195,976
17:18:00.036,,-67,194,975
17:18:00.046,,-67,194,976
17:18:00.056,,-69,194,977
17:18:00.066,,-68,194,977
17:18:00.076,,-67,193,978
17:18:00.086,,-67,196,978
17:18:00.096,,-71,196,978
17:18:00.106,,-71,193,979
17:18:00.116,,-68,194,980
17:18:00.126,,-68,196,977
17:18:00.136,,-68,196,976
17:18:00.146,,-69,198,977
17:18:00.156,,-70,196,977
17:18:00.166,,-66,195,976
17:18:00.176,,-67,198,977
17:18:00.186,,-68,197,977
17:18:00.196,,-65,193,977
17:18:00.206,,-66,190,977
17:18:00.216,,-65,192,974
17:18:00.226,,-66,194,972
17:18:00.236,,-66,197,970
17:18:00.246,,-69,203,975
17:18:00.256,,-69,199,974
17:18:00.266,,-68,191,982
17:18:00.276,,-73,200,977
17:18:00.286,,-69,194,976
17:18:00.296,,-66,193,976
17:18:00.306,,-69,197,979
17:18:00.316,,-69,201,978
17:18:00.326,,-66,203,977
17:18:00.336,,-69,202,974
17:18:00.346,,-73,200,978
17:18:00.356,,-72,196,980
17:18:00.366,,-68,197,982
17:18:00.376,,-67,195,981
17:18:00.386,,-66,192,980
17:18:00.396,,-61,191,979
17:18:00.406,,-64,192,977
17:18:00.416,,-63,192,974
17:18:00.426,,-65,193,971
17:18:00.436,,-66,191,972
17:18:00.446,,-66,191,971
17:18:00.456,,-67,195,968
17:18:00.466,,-70,201,973
17:18:00.476,,-75,207,975
17:18:00.486,,-76,206,978
17:18:00.496,,-73,205,980
17:18:00.506,,-73,201,977
17:18:00.516,,-71,197,979
17:18:00.526,,-68,195,982
17:18:00.536,,-64,191,980
17:18:00.546,,-58,188,975
17:18:00.556,,-54,188,972
17:18:00.566,,-56,191,971
17:18:00.576,,-60,196,972
17:18:00.586,,-59,194,971
17:18:00.596,,-59,196,974
17:18:00.606,,-61,196,975
17:18:00.616,,-63,196,981
17:18:00.626,,-64,194,983
17:18:00.636,,-67,191,985
17:18:00.646,,-67,190,988
17:18:00.656,,-68,200,984
17:18:00.666,,-72,201,982
17:18:00.676,,-71,199,981
17:18:00.686,,-67,198,976
17:18:00.696,,-68,199,975
17:18:00.706,,-68,199,971
17:18:00.716,,-68,196,970
17:18:00.726,,-64,196,972
17:18:00.736,,-62,196,971
17:18:00.746,,-64,195,971
17:18:00.756,,-61,192,970
17:18:00.766,,-60,195,973
17:18:00.776,,-64,194,974
17:18:00.786,,-63,192,979
17:18:00.796,,-64,190,981
17:18:00.806,,-63,191,984
17:18:00.816,,-63,194,983
17:18:00.826,,-64,196,982
17:18:00.836,,-65,196,980
17:18:00.846,,-62,193,980
17:18:00.856,,-63,196,977
17:18:00.866,,-63,199,976
17:18:00.876,,-64,199,976
17:18:00.886,,-65,202,978
17:18:00.896,,-64,199,975
17:18:00.906,,-64,196,978
17:18:00.916,,-65,193,976
17:18:00.926,,-64,194,977
17:18:00.936,,-64,196,977
17:18:00.946,,-63,194,978
17:18:00.956,,-62,192,979
17:18:00.966,,-57,189,975
17:18:00.976,,-61,191,975
17:18:00.986,,-64,194,978
17:18:00.996,,-64,194,977
17:18:01.006,,-63,194,978
17:18:01.016,,-63,195,976
17:18:01.026,,-62,191,975
17:18:01.036,,-64,190,978
17:18:01.046,,-63,190,979
17:18:01.056,,-64,192,977
17:18:01.066,,-63,192,977
17:18:01.076,,-66,193,977
17:18:01.086,,-66,197,976
17:18:01.096,,-65,200,974
17:18:01.106,,-64,201,972
17:18:01.116,,-63,199,973
17:18:01.126,,-63,195,976
17:18:01.249,,-63,192,972
17:18:01.251,,-63,192,972
17:18:01.252,,-63,192,972
17:18:01.254,,-63,192,972
17:18:01.255,,-63,192,972
17:18:01.256,,-63,192,972
17:18:01.258,,-63,192,972
17:18:01.259,,-65,196,970
17:18:01.260,,-65,196,970
17:18:01.262,,-65,196,970
17:18:01.263,,-65,196,970
17:18:01.264,,-65,196,970
17:18:01.266,,-65,196,970
17:18:01.267,,-65,196,970
17:18:01.276,,-66,203,970
17:18:01.286,,-68,206,974
17:18:01.296,,-68,197,980
17:18:01.306,,-66,194,983
17:18:01.316,,-68,192,984
17:18:01.326,,-64,190,981
17:18:01.336,,-62,192,979
17:18:01.346,,-60,195,979
17:18:01.356,,-55,198,974
17:18:01.366,,-47,197,966
17:18:01.376,,-52,195,961
17:18:01.386,,-62,196,969
17:18:01.396,,-67,201,990
17:18:01.406,,-72,189,988
17:18:01.416,,-59,185,964
17:18:01.426,,-58,187,973
17:18:01.436,,-61,186,982
17:18:01.446,,-65,188,992
17:18:01.456,,-67,191,995
17:18:01.466,,-62,191,990
17:18:01.476,,-55,192,984
17:18:01.486,,-59,194,981
17:18:01.496,,-60,195,980
17:18:01.506,,-59,196,976
17:18:01.516,,-58,196,974
17:18:01.526,,-54,197,971
17:18:01.536,,-52,195,968
17:18:01.546,,-53,192,969
17:18:01.556,,-55,191,973
17:18:01.566,,-58,194,977
17:18:01.576,,-57,189,977
17:18:01.586,,-54,186,980
17:18:01.596,,-53,187,981
17:18:01.606,,-55,190,980
17:18:01.616,,-56,194,979
17:18:01.626,,-59,198,981
17:18:01.636,,-60,196,980
17:18:01.646,,-57,191,979
17:18:01.656,,-58,190,976
17:18:01.666,,-60,192,977
17:18:01.676,,-62,195,978
17:18:01.686,,-61,195,978
17:18:01.696,,-62,195,979
17:18:01.706,,-62,194,977
17:18:01.716,,-61,192,977
17:18:01.726,,-59,190,977
17:18:01.736,,-61,189,978
17:18:01.745,,-59,191,979
17:18:01.756,,-57,192,977
17:18:01.766,,-56,194,978
17:18:01.775,,-56,193,979
17:18:01.786,,-57,192,980
17:18:01.796,,-57,190,980
17:18:01.805,,-54,188,979
17:18:01.816,,-53,187,978
17:18:01.826,,-52,191,977
17:18:01.835,,-55,193,976
17:18:01.846,,-58,192,977
17:18:01.856,,-58,190,978
17:18:01.865,,-59,191,977
17:18:01.876,,-62,195,977
17:18:01.886,,-61,195,978
17:18:01.895,,-63,193,980
17:18:01.906,,-62,193,979
17:18:01.915,,-61,194,979
17:18:01.925,,-59,196,980
17:18:01.936,,-62,193,975
17:18:01.945,,-60,192,976
17:18:01.955,,-61,194,975
17:18:01.966,,-60,193,976
17:18:01.975,,-59,190,977
17:18:01.985,,-56,190,978
17:18:01.996,,-54,191,981
17:18:02.005,,-54,194,981
17:18:02.015,,-56,191,981
17:18:02.025,,-54,188,980
17:18:02.035,,-55,189,979
17:18:02.045,,-58,195,978
17:18:02.055,,-60,198,979
17:18:02.065,,-60,195,979
17:18:02.075,,-61,192,977
17:18:02.085,,-59,188,976
17:18:02.095,,-58,189,974
17:18:02.105,,-58,192,976
17:18:02.115,,-61,192,978
17:18:02.125,,-60,192,979
17:18:02.135,,-59,191,978
17:18:02.145,,-56,194,978
17:18:02.155,,-58,197,978
17:18:02.165,,-61,199,978
17:18:02.175,,-61,197,980
17:18:02.185,,-60,192,976
17:18:02.195,,-61,192,977
17:18:02.205,,-61,188,977
17:18:02.215,,-57,184,979
17:18:02.225,,-55,183,975
17:18:02.235,,-52,182,975
17:18:02.245,,-51,186,974
17:18:02.255,,-56,190,975
17:18:02.265,,-56,190,978
17:18:02.275,,-58,193,979
17:18:02.285,,-59,194,978
17:18:02.295,,-58,194,977
17:18:02.305,,-61,199,976
17:18:02.315,,-63,202,978
17:18:02.325,,-63,197,977
17:18:02.335,,-61,195,976
17:18:02.345,,-60,196,977
17:18:02.355,,-61,195,978
17:18:02.365,,-62,190,981
17:18:02.375,,-60,189,980
17:18:02.385,,-56,192,980
17:18:02.395,,-57,193,979
17:18:02.405,,-54,191,980
17:18:02.415,,-54,194,981
17:18:02.425,,-56,193,982
17:18:02.435,,-57,190,983
17:18:02.445,,-55,190,981
17:18:02.455,,-54,190,979
17:18:02.465,,-56,190,977
17:18:02.475,,-56,188,975
17:18:02.485,,-54,190,975
17:18:02.495,,-58,192,973
17:18:02.505,,-57,193,975
17:18:02.515,,-58,193,975
17:18:02.525,,-59,195,978
17:18:02.535,,-61,198,979
17:18:02.545,,-63,197,980
17:18:02.555,,-61,196,982
17:18:02.565,,-63,198,982
17:18:02.575,,-58,192,981
17:18:02.585,,-59,192,981
17:18:02.595,,-58,191,980
17:18:02.605,,-57,191,979
17:18:02.615,,-58,189,979
17:18:02.625,,-56,188,977
17:18:02.635,,-57,189,975
17:18:02.645,,-59,190,974
17:18:02.655,,-56,191,975
17:18:02.665,,-55,192,976
17:18:02.675,,-56,191,977
17:18:02.685,,-55,190,977
17:18:02.695,,-56,188,976
17:18:02.705,,-60,192,975
17:18:02.824,,-57,197,976
17:18:02.825,,-57,197,976
17:18:02.827,,-58,200,976
17:18:02.828,,-58,200,976
17:18:02.829,,-58,200,976
17:18:02.831,,-58,200,976
17:18:02.832,,-58,200,976
17:18:02.834,,-58,200,976
17:18:02.835,,-58,201,978
17:18:02.836,,-60,201,978
17:18:02.838,,-60,201,978
17:18:02.839,,-60,201,978
17:18:02.840,,-60,201,978
17:18:02.845,,-61,200,979
17:18:02.855,,-60,196,981
17:18:02.865,,-60,192,982
17:18:02.875,,-58,190,980
17:18:02.885,,-59,188,980
17:18:02.895,,-58,185,978
17:18:02.905,,-56,187,974
17:18:02.915,,-53,195,968
17:18:02.925,,-54,203,959
17:18:02.935,,-58,199,970
17:18:02.945,,-63,187,978
17:18:02.955,,-64,190,976
17:18:02.965,,-60,195,975
17:18:02.975,,-64,193,980
17:18:02.985,,-66,189,984
17:18:02.995,,-64,189,982
17:18:03.005,,-61,193,980
17:18:03.015,,-59,194,980
17:18:03.025,,-61,190,982
17:18:03.035,,-58,189,982
17:18:03.045,,-56,193,978
17:18:03.055,,-57,196,976
17:18:03.065,,-58,195,975
17:18:03.075,,-55,195,972
17:18:03.085,,-55,195,974
17:18:03.095,,-57,200,974
17:18:03.105,,-59,199,977
17:18:03.115,,-60,200,979
17:18:03.125,,-63,200,978
17:18:03.135,,-61,196,974
17:18:03.145,,-57,191,974
17:18:03.155,,-49,196,973
17:18:03.165,,-45,197,956
17:18:03.175,,-44,198,960
17:18:03.185,,-38,211,974
17:18:03.195,,-76,193,987
17:18:03.205,,-73,210,976
17:18:03.215,,-63,194,978
17:18:03.225,,-71,193,986
17:18:03.235,,-76,192,987
17:18:03.245,,-69,197,987
17:18:03.255,,-67,196,991
17:18:03.265,,-73,200,990
17:18:03.275,,-72,201,988
17:18:03.285,,-68,199,987
17:18:03.295,,-67,201,985
17:18:03.305,,-67,200,980
17:18:03.315,,-66,200,979
17:18:03.325,,-63,201,976
17:18:03.335,,-63,201,973
17:18:03.345,,-59,200,968
17:18:03.355,,-62,197,967
17:18:03.365,,-62,195,968
17:18:03.375,,-60,200,968
17:18:03.385,,-63,201,970
17:18:03.395,,-63,198,974
17:18:03.405,,-66,198,976
17:18:03.415,,-66,198,978
17:18:03.425,,-67,199,977
17:18:03.435,,-69,201,978
17:18:03.445,,-71,201,978
17:18:03.455,,-68,203,978
17:18:03.465,,-67,206,976
17:18:03.475,,-66,199,975
17:18:03.485,,-63,197,974
17:18:03.495,,-62,202,970
17:18:03.505,,-64,203,967
17:18:03.515,,-59,204,967
17:18:03.525,,-60,206,974
17:18:03.535,,-65,206,972
17:18:03.545,,-67,198,974
17:18:03.555,,-67,201,976
17:18:03.565,,-66,200,980
17:18:03.575,,-63,197,987
17:18:03.585,,-65,198,989
17:18:03.595,,-66,198,984
17:18:03.605,,-62,199,981
17:18:03.615,,-62,203,979
17:18:03.625,,-62,202,978
17:18:03.635,,-67,200,974
17:18:03.645,,-68,199,972
17:18:03.655,,-64,204,967
17:18:03.665,,-60,209,967
17:18:03.675,,-59,207,968
17:18:03.685,,-63,202,970
17:18:03.695,,-59,200,973
17:18:03.705,,-57,199,974
17:18:03.715,,-63,195,977
17:18:03.725,,-58,200,978
17:18:03.735,,-77,210,983
17:18:03.745,,-70,204,981
17:18:03.755,,-64,199,985
17:18:03.765,,-66,193,983
17:18:03.775,,-70,195,977
17:18:03.785,,-67,195,977
17:18:03.795,,-65,198,975
17:18:03.805,,-69,197,974
17:18:03.815,,-67,199,973
17:18:03.825,,-65,198,971
17:18:03.835,,-63,197,972
17:18:03.845,,-67,196,973
17:18:03.855,,-64,202,972
17:18:03.865,,-65,208,973
17:18:03.875,,-64,211,973
17:18:03.885,,-63,206,974
17:18:03.895,,-66,200,977
17:18:03.905,,-67,201,977
17:18:03.915,,-66,204,978
17:18:03.925,,-66,203,978
17:18:03.935,,-68,202,979
17:18:03.945,,-66,199,981
17:18:03.955,,-66,196,978
17:18:03.965,,-63,191,977
17:18:03.975,,-63,192,978
17:18:03.985,,-64,201,976
17:18:03.995,,-65,202,976
17:18:04.005,,-65,199,974
17:18:04.015,,-63,200,974
17:18:04.025,,-67,205,975
17:18:04.035,,-67,204,975
17:18:04.045,,-67,200,976
17:18:04.055,,-66,199,974
17:18:04.065,,-65,198,975
17:18:04.075,,-66,201,975
17:18:04.085,,-66,203,975
17:18:04.095,,-66,204,975
17:18:04.105,,-67,202,975
17:18:04.115,,-65,201,976
17:18:04.125,,-67,199,978
17:18:04.135,,-65,198,979
17:18:04.145,,-64,199,979
17:18:04.155,,-64,200,977
17:18:04.165,,-63,200,978
17:18:04.175,,-66,200,979
17:18:04.185,,-66,196,977
17:18:04.195,,-63,194,978
17:18:04.205,,-63,196,977
17:18:04.215,,-64,198,976
17:18:04.225,,-63,200,974
17:18:04.235,,-63,202,973
17:18:04.245,,-66,203,972
17:18:04.255,,-67,201,973
17:18:04.265,,-69,198,974
17:18:04.275,,-68,198,977
17:18:04.400,,-66,204,974
17:18:04.401,,-66,204,974
17:18:04.403,,-65,201,978
17:18:04.404,,-65,201,978
17:18:04.405,,-65,201,978
17:18:04.407,,-65,201,978
17:18:04.408,,-65,201,978
17:18:04.410,,-65,201,978
17:18:04.411,,-65,201,978
17:18:04.412,,-66,200,980
17:18:04.414,,-66,200,980
17:18:04.415,,-66,200,980
17:18:04.416,,-66,200,980
17:18:04.418,,-66,200,980
17:18:04.425,,-66,199,983
17:18:04.435,,-64,200,985
17:18:04.445,,-68,200,985
17:18:04.455,,-66,193,987
17:18:04.465,,-63,192,981
17:18:04.475,,-63,193,975
17:18:04.485,,-64,194,974
17:18:04.495,,-68,202,969
17:18:04.505,,-69,201,972
17:18:04.515,,-68,205,973
17:18:04.525,,-66,208,973
17:18:04.535,,-68,201,977
17:18:04.545,,-68,192,980
17:18:04.555,,-64,194,981
17:18:04.565,,-64,200,980
17:18:04.575,,-65,205,976
17:18:04.585,,-65,203,975
17:18:04.595,,-63,201,976
17:18:04.605,,-63,201,973
17:18:04.615,,-63,200,974
17:18:04.625,,-64,197,973
17:18:04.635,,-63,197,974
17:18:04.645,,-66,197,972
17:18:04.655,,-67,198,974
17:18:04.665,,-69,198,975
17:18:04.675,,-68,195,976
17:18:04.685,,-68,193,978
17:18:04.695,,-70,195,978
17:18:04.705,,-70,196,980
17:18:04.715,,-67,197,979
17:18:04.725,,-66,200,978
17:18:04.735,,-66,203,976
17:18:04.745,,-66,203,977
17:18:04.755,,-65,201,976
17:18:04.765,,-66,201,974
17:18:04.775,,-65,198,974
17:18:04.785,,-64,198,975
17:18:04.795,,-65,198,974
17:18:04.805,,-64,197,976
17:18:04.815,,-64,196,976
17:18:04.825,,-65,196,977
17:18:04.835,,-66,196,978
17:18:04.845,,-67,195,979
17:18:04.855,,-67,195,976
17:18:04.865,,-66,190,974
17:18:04.875,,-64,191,975
17:18:04.885,,-63,199,973
17:18:04.895,,-64,204,975
17:18:04.905,,-64,205,975
17:18:04.915,,-66,206,975
17:18:04.925,,-67,204,976
17:18:04.935,,-68,202,979
17:18:04.945,,-68,204,979
17:18:04.955,,-69,202,981
17:18:04.965,,-67,200,981
17:18:04.975,,-66,198,981
17:18:04.985,,-65,198,979
17:18:04.995,,-65,196,976
17:18:05.005,,-61,197,973
17:18:05.015,,-61,195,974
17:18:05.025,,-61,195,975
17:18:05.035,,-61,196,976
17:18:05.045,,-64,197,983
17:18:05.055,,-73,194,998
17:18:05.065,,-80,192,1003
17:18:05.075,,-75,196,1001
17:18:05.085,,-79,201,1009
17:18:05.095,,-89,198,1010
17:18:05.105,,-83,192,999
17:18:05.115,,-81,193,993
17:18:05.125,,-76,198,963
17:18:05.135,,-67,200,949
17:18:05.145,,-67,200,952
17:18:05.155,,-74,193,958
17:18:05.165,,-73,196,958
17:18:05.175,,-73,196,951
17:18:05.185,,-67,194,946
17:18:05.195,,-71,188,957
17:18:05.205,,-78,184,973
17:18:05.215,,-84,186,985
17:18:05.225,,-86,188,983
17:18:05.235,,-86,188,979
17:18:05.245,,-84,185,984
17:18:05.255,,-86,181,989
17:18:05.265,,-85,185,978
17:18:05.275,,-87,192,972
17:18:05.285,,-90,190,970
17:18:05.295,,-86,188,963
17:18:05.305,,-86,190,959
17:18:05.315,,-88,191,959
17:18:05.325,,-87,192,961
17:18:05.335,,-86,191,963
17:18:05.345,,-84,188,967
17:18:05.355,,-83,186,968
17:18:05.365,,-82,189,973
17:18:05.375,,-81,194,976
17:18:05.385,,-82,198,980
17:18:05.395,,-86,192,989
17:18:05.405,,-88,190,989
17:18:05.415,,-85,189,987
17:18:05.425,,-85,190,986
17:18:05.435,,-87,189,987
17:18:05.445,,-85,188,984
17:18:05.455,,-82,189,980
17:18:05.465,,-78,187,978
17:18:05.475,,-78,186,974
17:18:05.485,,-77,188,973
17:18:05.495,,-78,190,973
17:18:05.505,,-78,193,970
17:18:05.515,,-78,194,968
17:18:05.525,,-80,196,973
17:18:05.535,,-83,200,977
17:18:05.545,,-85,201,980
17:18:05.555,,-85,199,981
17:18:05.565,,-85,192,981
17:18:05.575,,-83,188,982
17:18:05.585,,-83,185,981
17:18:05.595,,-80,184,978
17:18:05.605,,-79,185,977
17:18:05.615,,-78,185,976
17:18:05.625,,-77,188,975
17:18:05.635,,-75,189,972
17:18:05.645,,-73,191,974
17:18:05.655,,-77,197,975
17:18:05.665,,-78,196,976
17:18:05.675,,-76,196,976
17:18:05.685,,-77,196,977
17:18:05.695,,-79,195,980
17:18:05.705,,-78,196,983
17:18:05.715,,-79,195,983
17:18:05.725,,-79,195,981
17:18:05.735,,-78,193,979
17:18:05.745,,-80,193,978
17:18:05.755,,-81,193,978
17:18:05.765,,-79,191,975
17:18:05.775,,-77,190,972
17:18:05.785,,-75,194,973
17:18:05.795,,-77,197,972
17:18:05.805,,-75,197,973
17:18:05.815,,-77,198,975
17:18:05.825,,-80,195,978
17:18:05.835,,-80,192,979
17:18:05.845,,-77,189,979
17:18:05.855,,-75,189,977
17:18:05.974,,-73,191,974
17:18:05.976,,-73,191,974
17:18:05.977,,-73,191,974
17:18:05.978,,-73,191,974
17:18:05.980,,-74,193,973
17:18:05.981,,-74,193,973
17:18:05.983,,-74,193,973
17:18:05.984,,-74,193,973
17:18:05.985,,-74,193,973
17:18:05.987,,-74,193,973
17:18:05.988,,-74,193,973
17:18:05.989,,-74,194,971
17:18:05.991,,-74,194,971
17:18:05.995,,-74,194,971
17:18:06.005,,-76,193,972
17:18:06.015,,-76,194,974
17:18:06.025,,-78,196,976
17:18:06.035,,-74,192,976
17:18:06.045,,-75,192,977
17:18:06.055,,-74,193,977
17:18:06.065,,-75,198,975
17:18:06.075,,-75,200,977
17:18:06.085,,-73,200,978
17:18:06.095,,-72,199,979
17:18:06.105,,-74,198,980
17:18:06.115,,-76,197,982
17:18:06.125,,-74,194,979
17:18:06.135,,-70,193,977
17:18:06.145,,-70,195,975
17:18:06.155,,-71,194,971
17:18:06.165,,-70,190,970
17:18:06.175,,-70,192,969
17:18:06.185,,-72,196,971
17:18:06.195,,-73,197,975
17:18:06.205,,-73,196,978
17:18:06.215,,-71,192,981
17:18:06.225,,-71,195,984
17:18:06.235,,-72,198,986
17:18:06.245,,-72,198,988
17:18:06.255,,-68,196,987
17:18:06.265,,-65,200,985
17:18:06.275,,-69,205,982
17:18:06.285,,-73,203,975
17:18:06.295,,-71,192,973
17:18:06.305,,-74,190,970
17:18:06.315,,-74,187,966
17:18:06.325,,-72,185,966
17:18:06.335,,-69,186,966
17:18:06.345,,-71,191,969
17:18:06.355,,-75,192,973
17:18:06.365,,-75,191,977
17:18:06.375,,-73,193,980
17:18:06.385,,-73,199,981
17:18:06.395,,-72,202,981
17:18:06.405,,-72,206,980
17:18:06.415,,-72,209,977
17:18:06.425,,-69,210,976
17:18:06.435,,-66,211,976
17:18:06.445,,-68,205,976
17:18:06.455,,-67,196,978
17:18:06.465,,-66,190,976
17:18:06.475,,-64,185,975
17:18:06.485,,-65,189,975
17:18:06.495,,-67,190,975
17:18:06.505,,-67,189,976
17:18:06.515,,-67,187,976
17:18:06.525,,-66,186,976
17:18:06.535,,-66,191,979
17:18:06.545,,-73,200,981
17:18:06.555,,-71,199,982
17:18:06.565,,-72,199,978
17:18:06.575,,-71,200,976
17:18:06.585,,-72,205,974
17:18:06.595,,-73,206,974
17:18:06.605,,-72,202,973
17:18:06.615,,-72,199,971
17:18:06.625,,-73,197,971
17:18:06.635,,-72,197,970
17:18:06.645,,-71,199,970
17:18:06.655,,-72,199,971
17:18:06.665,,-71,198,972
17:18:06.675,,-72,199,973
17:18:06.685,,-70,196,978
17:18:06.695,,-71,193,979
17:18:06.705,,-69,189,981
17:18:06.715,,-65,192,981
17:18:06.725,,-66,198,979
17:18:06.735,,-67,200,979
17:18:06.745,,-68,200,979
17:18:06.755,,-66,201,980
17:18:06.765,,-66,200,978
17:18:06.775,,-65,198,976
17:18:06.785,,-63,199,976
17:18:06.795,,-63,200,976
17:18:06.805,,-65,198,973
17:18:06.815,,-63,200,974
17:18:06.825,,-67,204,975
17:18:06.835,,-69,199,978
17:18:06.845,,-68,195,980
17:18:06.855,,-67,191,980
17:18:06.865,,-68,192,981
17:18:06.875,,-69,197,979
17:18:06.885,,-69,198,979
17:18:06.895,,-65,199,976
17:18:06.905,,-67,201,974
17:18:06.915,,-68,198,972
17:18:06.925,,-66,197,974
17:18:06.935,,-66,196,975
17:18:06.945,,-67,197,976
17:18:06.955,,-68,196,976
17:18:06.965,,-68,196,978
17:18:06.975,,-70,198,978
17:18:06.985,,-70,197,977
17:18:06.995,,-69,192,977
17:18:07.005,,-67,192,975
17:18:07.015,,-67,196,976
17:18:07.025,,-70,194,976
17:18:07.035,,-70,192,976
17:18:07.045,,-69,194,975
17:18:07.055,,-69,200,974
17:18:07.065,,-69,206,973
17:18:07.075,,-67,205,972
17:18:07.085,,-67,204,973
17:18:07.095,,-67,205,976
17:18:07.105,,-68,205,978
17:18:07.115,,-68,202,980
17:18:07.125,,-66,197,980
17:18:07.135,,-66,196,980
17:18:07.145,,-68,196,979
17:18:07.155,,-66,195,978
17:18:07.165,,-67,201,976
17:18:07.175,,-67,203,975
17:18:07.185,,-68,200,972
17:18:07.195,,-65,200,973
17:18:07.205,,-66,203,974
17:18:07.215,,-67,199,975
17:18:07.225,,-64,197,979
17:18:07.235,,-66,194,978
17:18:07.245,,-66,191,978
17:18:07.255,,-66,195,974
17:18:07.265,,-67,199,975
17:18:07.275,,-71,203,977
17:18:07.285,,-72,200,976
17:18:07.295,,-69,201,975
17:18:07.305,,-68,200,975
17:18:07.315,,-70,196,975
17:18:07.325,,-68,195,975
17:18:07.335,,-66,193,975
17:18:07.345,,-65,194,973
17:18:07.355,,-66,192,974
17:18:07.365,,-67,191,978
17:18:07.375,,-65,193,977
17:18:07.385,,-65,196,977
17:18:07.395,,-64,201,977
17:18:07.405,,-64,203,977
17:18:07.415,,-67,203,978
17:18:07.425,,-67,200,979
17:18:07.549,,-66,196,979
17:18:07.550,,-66,196,979
17:18:07.552,,-66,196,979
17:18:07.553,,-66,196,979
17:18:07.554,,-66,196,979
17:18:07.556,,-66,196,979
17:18:07.557,,-64,196,977
17:18:07.558,,-64,196,977
17:18:07.560,,-64,196,977
17:18:07.561,,-64,196,977
17:18:07.562,,-64,196,977
17:18:07.564,,-64,196,977
17:18:07.565,,-64,196,976
17:18:07.567,,-63,196,976
17:18:07.575,,-63,198,977
17:18:07.585,,-63,198,978
17:18:07.595,,-65,196,979
17:18:07.605,,-64,195,979
17:18:07.615,,-63,195,979
17:18:07.625,,-62,197,977
17:18:07.635,,-65,199,976
17:18:07.645,,-66,201,977
17:18:07.655,,-67,201,978
17:18:07.665,,-68,199,977
17:18:07.675,,-65,201,977
17:18:07.685,,-68,199,975
17:18:07.695,,-65,196,976
17:18:07.705,,-67,195,976
17:18:07.715,,-68,195,973
17:18:07.725,,-66,197,974
17:18:07.735,,-68,198,975
17:18:07.745,,-69,196,975
17:18:07.755,,-68,194,975
17:18:07.765,,-67,194,974
17:18:07.775,,-64,196,974
17:18:07.785,,-66,196,975
17:18:07.795,,-67,196,975
17:18:07.805,,-66,196,975
17:18:07.815,,-64,200,977
17:18:07.825,,-66,198,981
17:18:07.835,,-66,195,981
17:18:07.845,,-66,195,982
17:18:07.855,,-65,197,978
17:18:07.865,,-67,201,976
17:18:07.875,,-68,202,979
17:18:07.885,,-66,201,979
17:18:07.895,,-67,197,973
17:18:07.905,,-66,193,974
17:18:07.915,,-67,193,977
17:18:07.925,,-65,194,975
17:18:07.935,,-63,195,973
17:18:07.945,,-62,195,973
17:18:07.955,,-61,196,976
17:18:07.965,,-60,194,976
17:18:07.975,,-60,198,976
17:18:07.985,,-63,204,979
17:18:07.995,,-67,202,982
17:18:08.005,,-66,198,983
17:18:08.015,,-65,196,981
17:18:08.025,,-64,199,981
17:18:08.035,,-70,202,981
17:18:08.045,,-68,200,980
17:18:08.055,,-66,202,979
17:18:08.065,,-67,201,975
17:18:08.075,,-64,196,974
17:18:08.085,,-66,191,973
17:18:08.095,,-65,191,973
17:18:08.105,,-66,193,972
17:18:08.115,,-66,194,973
17:18:08.125,,-65,194,974
17:18:08.135,,-67,195,976
17:18:08.145,,-69,195,977
17:18:08.155,,-68,195,974
17:18:08.165,,-70,196,976
17:18:08.175,,-71,193,978
17:18:08.185,,-70,189,978
17:18:08.195,,-69,186,978
17:18:08.205,,-68,190,978
17:18:08.215,,-67,193,979
17:18:08.225,,-66,194,976
17:18:08.235,,-67,197,976
17:18:08.245,,-67,199,976
17:18:08.255,,-68,198,976
17:18:08.265,,-65,198,975
17:18:08.275,,-64,198,973
17:18:08.285,,-64,196,973
17:18:08.295,,-64,197,974
17:18:08.305,,-62,202,976
17:18:08.315,,-66,203,976
17:18:08.325,,-68,200,978
17:18:08.335,,-66,195,979
17:18:08.345,,-67,197,978
17:18:08.355,,-67,199,977
17:18:08.365,,-67,195,978
17:18:08.375,,-66,194,980
17:18:08.385,,-64,196,978
17:18:08.395,,-65,197,974
17:18:08.405,,-64,198,974
17:18:08.415,,-65,202,976
17:18:08.425,,-68,203,976
17:18:08.435,,-68,198,975
17:18:08.445,,-68,194,978
17:18:08.455,,-67,196,979
17:18:08.465,,-67,198,978
17:18:08.475,,-67,196,978
17:18:08.485,,-67,196,979
17:18:08.495,,-66,198,977
17:18:08.505,,-66,200,975
17:18:08.515,,-66,197,975
17:18:08.525,,-65,196,978
17:18:08.535,,-67,197,977
17:18:08.545,,-64,194,975
17:18:08.555,,-64,193,976
17:18:08.565,,-65,195,976
17:18:08.575,,-67,193,977
17:18:08.585,,-65,193,975
17:18:08.595,,-68,197,977
17:18:08.605,,-67,196,976
17:18:08.615,,-69,196,974
17:18:08.625,,-66,196,976
17:18:08.635,,-70,199,976
17:18:08.645,,-70,196,977
17:18:08.655,,-68,195,978
17:18:08.665,,-67,197,976
17:18:08.675,,-64,199,975
17:18:08.685,,-66,201,976
17:18:08.695,,-67,199,975
17:18:08.705,,-65,198,975
17:18:08.715,,-65,200,975
17:18:08.725,,-65,197,974
17:18:08.735,,-63,192,977
17:18:08.745,,-64,189,977
17:18:08.755,,-64,194,974
17:18:08.765,,-67,199,976
17:18:08.775,,-67,198,980
17:18:08.785,,-65,195,981
17:18:08.795,,-65,193,980
17:18:08.805,,-64,197,981
17:18:08.815,,-65,199,981
17:18:08.825,,-65,197,981
17:18:08.835,,-63,196,980
17:18:08.845,,-64,198,978
17:18:08.855,,-65,201,976
17:18:08.865,,-67,204,975
17:18:08.875,,-69,203,975
17:18:08.885,,-70,200,975
17:18:08.895,,-67,198,975
17:18:08.905,,-67,196,974
17:18:08.915,,-65,194,974
17:18:08.925,,-66,197,975
17:18:08.935,,-66,195,978
17:18:08.945,,-64,192,977
17:18:08.955,,-64,194,976
17:18:08.965,,-64,195,975
17:18:08.975,,-64,197,977
17:18:08.985,,-67,199,976
17:18:08.995,,-67,198,975
17:18:09.005,,-66,201,975
17:18:09.123,,-65,200,974
17:18:09.124,,-64,200,976
17:18:09.126,,-64,200,976
17:18:09.127,,-64,200,976
17:18:09.128,,-64,200,976
17:18:09.130,,-64,200,976
17:18:09.131,,-64,200,976
17:18:09.133,,-64,200,977
17:18:09.134,,-62,202,977
17:18:09.135,,-62,202,977
17:18:09.137,,-62,202,977
17:18:09.138,,-62,202,977
17:18:09.139,,-62,202,977
17:18:09.145,,-64,202,974
17:18:09.155,,-67,200,974
17:18:09.165,,-68,198,976
17:18:09.175,,-64,196,975
17:18:09.185,,-65,199,975
17:18:09.195,,-67,196,977
17:18:09.205,,-67,192,981
17:18:09.215,,-63,193,984
17:18:09.225,,-65,196,979
17:18:09.235,,-68,202,981
17:18:09.245,,-66,201,979
17:18:09.255,,-66,197,978
17:18:09.265,,-64,196,976
17:18:09.275,,-64,198,975
17:18:09.285,,-65,197,974
17:18:09.295,,-64,197,973
17:18:09.305,,-63,198,973
17:18:09.315,,-64,197,974
17:18:09.325,,-65,202,975
17:18:09.335,,-66,202,977
17:18:09.345,,-65,198,978
17:18:09.355,,-64,198,980
17:18:09.365,,-63,198,978
17:18:09.375,,-63,200,977
17:18:09.385,,-65,199,977
17:18:09.395,,-65,200,977
17:18:09.405,,-65,197,975
17:18:09.415,,-62,194,975
17:18:09.425,,-64,195,976
17:18:09.435,,-66,192,975
17:18:09.445,,-66,192,974
17:18:09.455,,-66,193,974
17:18:09.465,,-65,194,972
17:18:09.475,,-65,194,971
17:18:09.485,,-65,193,971
17:18:09.495,,-67,206,975
17:18:09.505,,-69,204,977
17:18:09.515,,-68,196,979
17:18:09.525,,-65,195,981
17:18:09.535,,-67,195,980
17:18:09.545,,-68,196,980
17:18:09.555,,-68,199,981
17:18:09.565,,-67,198,979
17:18:09.575,,-64,197,978
17:18:09.585,,-65,199,974
17:18:09.595,,-62,199,972
17:18:09.605,,-61,198,973
17:18:09.615,,-62,199,975
17:18:09.625,,-63,199,975
17:18:09.635,,-63,198,977
17:18:09.645,,-69,198,982
17:18:09.655,,-78,202,987
17:18:09.665,,-79,199,985
17:18:09.675,,-70,193,981
17:18:09.685,,-64,191,976
17:18:09.695,,-62,192,970
17:18:09.705,,-63,196,969
17:18:09.715,,-66,194,971
17:18:09.725,,-69,194,974
17:18:09.735,,-71,194,974
17:18:09.745,,-70,195,973
17:18:09.755,,-68,207,973
17:18:09.765,,-71,210,974
17:18:09.775,,-73,208,977
17:18:09.785,,-75,206,981
17:18:09.795,,-77,204,983
17:18:09.805,,-77,204,985
17:18:09.815,,-76,202,985
17:18:09.825,,-77,197,982
17:18:09.835,,-77,196,977
17:18:09.845,,-74,198,974
17:18:09.855,,-75,201,972
17:18:09.865,,-78,202,974
17:18:09.875,,-79,202,974
17:18:09.885,,-78,200,973
17:18:09.895,,-72,196,971
17:18:09.905,,-67,197,967
17:18:09.915,,-67,200,966
17:18:09.925,,-70,201,968
17:18:09.935,,-74,200,970
17:18:09.945,,-75,198,972
17:18:09.955,,-75,194,972
17:18:09.965,,-74,188,970
17:18:09.975,,-69,187,971
17:18:09.985,,-73,196,974
17:18:09.995,,-78,200,975
17:18:10.005,,-77,213,981
17:18:10.015,,-83,219,983
17:18:10.025,,-73,214,979
17:18:10.035,,-52,206,965
17:18:10.045,,-72,217,966
17:18:10.055,,-85,220,963
17:18:10.065,,-73,216,991
17:18:10.075,,-74,208,976
17:18:10.085,,-78,206,971
17:18:10.095,,-67,201,971
17:18:10.105,,-57,190,967
17:18:10.115,,-58,195,983
17:18:10.125,,-64,202,978
17:18:10.135,,-84,210,980
17:18:10.145,,-95,216,987
17:18:10.155,,-99,223,987
17:18:10.165,,-103,222,979
17:18:10.175,,-106,224,980
17:18:10.185,,-113,232,986
17:18:10.195,,-124,236,983
17:18:10.205,,-129,229,979
17:18:10.215,,-129,224,975
17:18:10.225,,-135,220,963
17:18:10.235,,-109,216,964
17:18:10.245,,-96,209,954
17:18:10.255,,-98,203,938
17:18:10.265,,-100,206,957
17:18:10.275,,-93,200,960
17:18:10.285,,-90,196,966
17:18:10.295,,-86,198,968
17:18:10.305,,-82,201,969
17:18:10.315,,-79,205,971
17:18:10.325,,-78,212,975
17:18:10.335,,-82,216,973
17:18:10.345,,-76,224,964
17:18:10.355,,-73,206,982
17:18:10.365,,-54,186,986
17:18:10.375,,-63,199,972
17:18:10.385,,-65,215,978
17:18:10.395,,-67,211,983
17:18:10.405,,-67,206,986
17:18:10.415,,-63,204,982
17:18:10.425,,-60,199,978
17:18:10.435,,-58,196,979
17:18:10.445,,-60,197,978
17:18:10.455,,-63,199,975
17:18:10.465,,-62,198,970
17:18:10.475,,-57,197,965
17:18:10.485,,-56,200,964
17:18:10.495,,-60,206,966
17:18:10.505,,-65,208,972
17:18:10.515,,-68,208,983
17:18:10.525,,-65,202,983
17:18:10.535,,-59,195,976
17:18:10.545,,-45,192,970
17:18:10.555,,-37,192,969
17:18:10.565,,-44,192,974
17:18:10.575,,-58,193,982
17:18:10.700,,-76,219,1009
17:18:10.701,,-99,218,1013
17:18:10.703,,-99,218,1013
17:18:10.704,,-99,218,1013
17:18:10.705,,-99,218,1013
17:18:10.707,,-99,218,1013
17:18:10.708,,-99,218,1013
17:18:10.709,,-99,218,1005
17:18:10.711,,-79,196,1005
17:18:10.712,,-79,196,1005
17:18:10.713,,-79,196,1005
17:18:10.715,,-79,196,1005
17:18:10.716,,-79,196,1005
17:18:10.718,,-79,196,1005
17:18:10.725,,-53,172,982
17:18:10.735,,-15,173,955
17:18:10.745,,-33,195,974
17:18:10.755,,-85,212,1006
17:18:10.765,,-94,221,1009
17:18:10.775,,-71,203,975
17:18:10.785,,-63,199,955
17:18:10.795,,-69,210,960
17:18:10.805,,-84,223,970
17:18:10.815,,-87,221,967
17:18:10.825,,-70,215,960
17:18:10.835,,-58,212,952
17:18:10.845,,-61,205,957
17:18:10.855,,-69,203,964
17:18:10.865,,-77,209,977
17:18:10.875,,-80,211,979
17:18:10.885,,-76,207,980
17:18:10.895,,-79,206,981
17:18:10.905,,-62,206,971
17:18:10.915,,-61,200,971
17:18:10.925,,-71,204,976
17:18:10.935,,-79,210,977
17:18:10.945,,-75,215,973
17:18:10.955,,-69,209,972
17:18:10.965,,-65,199,975
17:18:10.975,,-70,201,978
17:18:10.985,,-77,208,983
17:18:10.995,,-84,212,994
17:18:11.005,,-101,212,1003
17:18:11.014,,-101,207,1005
17:18:11.024,,-85,205,998
17:18:11.035,,-90,203,990
17:18:11.044,,-97,205,990
17:18:11.054,,-93,204,983
17:18:11.065,,-89,200,974
17:18:11.074,,-86,192,963
17:18:11.084,,-78,184,953
17:18:11.095,,-64,184,944
17:18:11.104,,-64,186,948
17:18:11.114,,-79,186,961
17:18:11.125,,-88,184,973
17:18:11.134,,-83,179,978
17:18:11.144,,-76,173,977
17:18:11.154,,-71,170,975
17:18:11.164,,-57,182,981
17:18:11.174,,-67,185,993
17:18:11.184,,-81,194,1002
17:18:11.194,,-79,195,1002
17:18:11.204,,-64,189,996
17:18:11.214,,-55,183,986
17:18:11.224,,-49,176,978
17:18:11.234,,-39,170,968
17:18:11.244,,-32,174,959
17:18:11.254,,-36,177,951
17:18:11.264,,-41,178,947
17:18:11.274,,-42,172,944
17:18:11.284,,-37,167,960
17:18:11.294,,-56,178,975
17:18:11.304,,-77,186,1000
17:18:11.314,,-88,197,1010
17:18:11.324,,-85,194,1020
17:18:11.334,,-89,184,1020
17:18:11.344,,-83,182,1007
17:18:11.354,,-73,187,991
17:18:11.364,,-69,190,981
17:18:11.374,,-72,193,977
17:18:11.384,,-84,200,984
17:18:11.394,,-100,203,992
17:18:11.404,,-112,196,992
17:18:11.414,,-82,178,963
17:18:11.424,,-85,168,960
17:18:11.434,,-92,163,961
17:18:11.444,,-92,169,962
17:18:11.454,,-94,178,962
17:18:11.464,,-98,183,958
17:18:11.474,,-97,185,957
17:18:11.484,,-93,188,957
17:18:11.494,,-84,187,959
17:18:11.504,,-86,188,973
17:18:11.514,,-106,195,988
17:18:11.524,,-122,198,995
17:18:11.534,,-114,194,987
17:18:11.544,,-78,167,974
17:18:11.554,,-70,166,968
17:18:11.564,,-64,184,966
17:18:11.574,,-73,205,978
17:18:11.584,,-102,205,1002
17:18:11.594,,-132,188,1019
17:18:11.604,,-111,181,1000
17:18:11.614,,-73,188,978
17:18:11.624,,-73,193,970
17:18:11.634,,-109,186,984
17:18:11.644,,-127,178,995
17:18:11.654,,-102,183,982
17:18:11.664,,-83,185,964
17:18:11.674,,-85,191,953
17:18:11.684,,-82,197,965
17:18:11.694,,-95,197,977
17:18:11.704,,-110,196,983
17:18:11.714,,-105,197,980
17:18:11.724,,-84,195,976
17:18:11.734,,-82,190,978
17:18:11.744,,-97,184,984
17:18:11.754,,-108,184,992
17:18:11.764,,-108,188,985
17:18:11.774,,-100,191,968
17:18:11.784,,-98,188,953
17:18:11.794,,-96,186,946
17:18:11.804,,-95,183,952
17:18:11.814,,-105,192,956
17:18:11.824,,-104,208,959
17:18:11.834,,-104,209,974
17:18:11.844,,-102,203,983
17:18:11.854,,-106,202,993
17:18:11.864,,-112,202,996
17:18:11.874,,-102,206,988
17:18:11.884,,-86,214,978
17:18:11.894,,-83,215,980
17:18:11.904,,-90,215,986
17:18:11.914,,-88,216,988
17:18:11.924,,-84,216,973
17:18:11.934,,-79,206,970
17:18:11.944,,-84,192,968
17:18:11.954,,-81,175,968
17:18:11.964,,-75,172,965
17:18:11.974,,-68,184,959
17:18:11.984,,-76,191,966
17:18:11.994,,-86,195,975
17:18:12.004,,-83,197,973
17:18:12.014,,-76,201,975
17:18:12.024,,-73,206,971
17:18:12.034,,-74,212,974
17:18:12.044,,-86,210,984
17:18:12.054,,-87,203,986
17:18:12.064,,-74,211,970
17:18:12.074,,-74,218,975
17:18:12.084,,-98,212,982
17:18:12.094,,-99,201,982
17:18:12.104,,-74,193,966
17:18:12.114,,-59,193,954
17:18:12.124,,-71,199,953
17:18:12.246,,-84,229,1025
17:18:12.247,,-84,229,1025
17:18:12.248,,-84,229,1025
17:18:12.250,,-94,238,1029
17:18:12.251,,-94,238,1029
17:18:12.252,,-94,238,1029
17:18:12.254,,-94,238,1029
17:18:12.255,,-94,238,1029
17:18:12.256,,-94,238,1029
17:18:12.258,,-94,238,1029
17:18:12.259,,-94,245,1029
17:18:12.261,,-94,245,1029
17:18:12.262,,-94,245,1029
17:18:12.264,,-94,245,1029
17:18:12.274,,-105,245,1040
17:18:12.284,,-116,239,1025
17:18:12.294,,-111,236,1010
17:18:12.304,,-92,231,987
17:18:12.314,,-44,265,949
17:18:12.324,,-102,254,991
17:18:12.334,,-143,232,1012
17:18:12.344,,-108,211,999
17:18:12.354,,-63,209,966
17:18:12.364,,-43,219,932
17:18:12.374,,-45,216,931
17:18:12.384,,-44,206,944
17:18:12.394,,-46,202,956
17:18:12.404,,-48,204,957
17:18:12.414,,-43,200,955
17:18:12.424,,-42,198,955
17:18:12.434,,-46,197,945
17:18:12.444,,-42,194,949
17:18:12.454,,-47,190,953
17:18:12.464,,-47,190,958
17:18:12.474,,-46,195,962
17:18:12.484,,-51,198,966
17:18:12.494,,-54,201,970
17:18:12.504,,-61,202,980
17:18:12.514,,-74,206,987
17:18:12.524,,-84,212,996
17:18:12.534,,-97,215,1012
17:18:12.544,,-105,215,1018
17:18:12.554,,-104,217,1021
17:18:12.564,,-105,213,1005
17:18:12.574,,-91,216,988
17:18:12.584,,-89,215,981
17:18:12.594,,-85,215,966
17:18:12.604,,-81,212,959
17:18:12.614,,-83,202,955
17:18:12.624,,-77,198,947
17:18:12.634,,-62,196,935
17:18:12.644,,-49,196,928
17:18:12.654,,-41,192,932
17:18:12.664,,-42,186,947
17:18:12.674,,-48,184,963
17:18:12.684,,-53,185,976
17:18:12.694,,-56,185,1009
17:18:12.704,,-76,190,1021
17:18:12.714,,-91,203,1021
17:18:12.724,,-94,212,1015
17:18:12.734,,-91,207,1008
17:18:12.744,,-98,193,995
17:18:12.754,,-99,184,977
17:18:12.764,,-88,187,952
17:18:12.774,,-70,197,935
17:18:12.784,,-85,203,937
17:18:12.794,,-100,208,946
17:18:12.804,,-96,213,951
17:18:12.814,,-84,217,945
17:18:12.824,,-90,223,954
17:18:12.834,,-90,215,965
17:18:12.844,,-92,214,978
17:18:12.854,,-103,216,989
17:18:12.864,,-104,218,992
17:18:12.874,,-93,214,991
17:18:12.884,,-87,206,996
17:18:12.894,,-92,207,995
17:18:12.904,,-82,212,985
17:18:12.914,,-76,216,983
17:18:12.924,,-96,215,981
17:18:12.934,,-100,214,974
17:18:12.944,,-96,217,966
17:18:12.954,,-114,216,970
17:18:12.964,,-119,210,973
17:18:12.974,,-105,209,964
17:18:12.984,,-84,208,944
17:18:12.994,,-78,208,933
17:18:13.004,,-76,209,933
17:18:13.014,,-67,217,935
17:18:13.024,,-71,223,953
17:18:13.034,,-81,225,967
17:18:13.044,,-62,228,968
17:18:13.054,,-63,223,991
17:18:13.064,,-87,216,1006
17:18:13.074,,-87,224,1006
17:18:13.084,,-64,234,994
17:18:13.094,,-68,233,988
17:18:13.104,,-70,229,988
17:18:13.114,,-73,226,984
17:18:13.124,,-64,231,971
17:18:13.134,,-69,231,974
17:18:13.144,,-92,227,976
17:18:13.154,,-76,225,956
17:18:13.164,,-67,219,963
17:18:13.174,,-85,212,969
17:18:13.184,,-105,217,973
17:18:13.194,,-108,219,974
17:18:13.204,,-99,211,952
17:18:13.214,,-94,209,945
17:18:13.224,,-86,210,946
17:18:13.234,,-86,214,951
17:18:13.244,,-99,218,962
17:18:13.254,,-102,220,966
17:18:13.264,,-89,214,967
17:18:13.274,,-71,201,961
17:18:13.284,,-64,197,960
17:18:13.294,,-68,205,964
17:18:13.304,,-78,213,971
17:18:13.314,,-79,216,974
17:18:13.324,,-66,214,973
17:18:13.334,,-66,208,979
17:18:13.344,,-64,214,975
17:18:13.354,,-59,227,973
17:18:13.364,,-65,231,975
17:18:13.374,,-79,223,986
17:18:13.384,,-82,215,993
17:18:13.394,,-74,214,991
17:18:13.404,,-75,218,980
17:18:13.414,,-78,222,969
17:18:13.424,,-73,223,958
17:18:13.434,,-63,211,946
17:18:13.444,,-56,205,942
17:18:13.454,,-61,212,952
17:18:13.464,,-90,230,990
17:18:13.474,,-104,226,999
17:18:13.484,,-96,214,990
17:18:13.494,,-68,206,967
17:18:13.504,,-37,197,953
17:18:13.514,,-37,200,957
17:18:13.524,,-60,214,975
17:18:13.534,,-73,225,985
17:18:13.544,,-68,233,981
17:18:13.554,,-56,227,969
17:18:13.564,,-53,214,961
17:18:13.574,,-48,210,957
17:18:13.584,,-40,220,964
17:18:13.594,,-63,238,998
17:18:13.604,,-61,233,1014
17:18:13.614,,-61,226,1028
17:18:13.624,,-72,218,1031
17:18:13.634,,-78,214,1024
17:18:13.644,,-58,212,998
17:18:13.654,,-20,203,969
17:18:13.664,,-12,188,950
17:18:13.674,,-25,185,934
17:18:13.684,,-35,190,927
17:18:13.811,,-105,206,986
17:18:13.812,,-105,206,986
17:18:13.814,,-105,206,986
17:18:13.815,,-105,206,986
17:18:13.816,,-105,206,958
17:18:13.818,,-82,201,958
17:18:13.819,,-82,201,958
17:18:13.820,,-82,201,958
17:18:13.822,,-82,201,958
17:18:13.823,,-82,201,958
17:18:13.825,,-82,201,958
17:18:13.826,,-82,201,935
17:18:13.827,,-44,201,935
17:18:13.829,,-44,201,935
17:18:13.834,,-44,201,935
17:18:13.844,,-35,200,950
17:18:13.854,,-106,233,977
17:18:13.864,,-102,234,990
17:18:13.874,,-84,219,992
17:18:13.884,,-81,212,989
17:18:13.894,,-90,219,984
17:18:13.904,,-79,227,968
17:18:13.914,,-55,223,957
17:18:13.924,,-48,214,961
17:18:13.934,,-67,216,981
17:18:13.944,,-91,224,1005
17:18:13.954,,-101,229,1013
17:18:13.964,,-90,225,1002
17:18:13.974,,-66,210,963
17:18:13.984,,-53,199,953
17:18:13.994,,-58,205,951
17:18:14.004,,-59,216,953
17:18:14.014,,-63,220,962
17:18:14.024,,-80,215,976
17:18:14.034,,-85,209,977
17:18:14.044,,-77,207,978
17:18:14.054,,-78,207,980
17:18:14.064,,-89,212,977
17:18:14.074,,-92,217,976
17:18:14.084,,-75,218,970
17:18:14.094,,-63,217,966
17:18:14.104,,-80,226,992
17:18:14.114,,-96,234,1003
17:18:14.124,,-98,230,995
17:18:14.134,,-81,219,969
17:18:14.144,,-53,202,939
17:18:14.154,,-32,189,919
17:18:14.164,,-22,189,918
17:18:14.174,,-29,196,935
17:18:14.184,,-46,204,957
17:18:14.194,,-59,209,984
17:18:14.204,,-69,203,1000
17:18:14.214,,-68,193,1001
17:18:14.224,,-57,187,993
17:18:14.234,,-51,198,988
17:18:14.244,,-56,207,992
17:18:14.254,,-62,215,998
17:18:14.264,,-67,219,998
17:18:14.274,,-66,221,992
17:18:14.284,,-60,216,982
17:18:14.294,,-51,210,974
17:18:14.304,,-56,210,970
17:18:14.314,,-70,218,969
17:18:14.324,,-83,224,968
17:18:14.334,,-82,220,958
17:18:14.344,,-68,207,949
17:18:14.354,,-59,194,944
17:18:14.364,,-77,201,966
17:18:14.374,,-85,209,974
17:18:14.384,,-83,215,978
17:18:14.394,,-77,215,980
17:18:14.404,,-72,206,983
17:18:14.414,,-66,200,982
17:18:14.424,,-56,205,976
17:18:14.434,,-52,212,970
17:18:14.444,,-51,212,972
17:18:14.454,,-58,212,979
17:18:14.464,,-65,215,983
17:18:14.474,,-67,218,983
17:18:14.484,,-71,216,982
17:18:14.494,,-58,213,963
17:18:14.504,,-49,208,953
17:18:14.514,,-45,209,953
17:18:14.524,,-56,216,961
17:18:14.534,,-70,219,978
17:18:14.544,,-86,225,989
17:18:14.554,,-85,223,992
17:18:14.564,,-76,216,997
17:18:14.574,,-82,213,1003
17:18:14.584,,-99,219,1010
17:18:14.594,,-105,225,1005
17:18:14.604,,-87,222,993
17:18:14.614,,-72,213,960
17:18:14.624,,-66,210,943
17:18:14.634,,-50,215,927
17:18:14.644,,-34,215,918
17:18:14.654,,-37,209,923
17:18:14.664,,-48,214,936
17:18:14.674,,-55,222,948
17:18:14.684,,-48,220,957
17:18:14.694,,-41,218,970
17:18:14.704,,-43,221,986
17:18:14.714,,-50,229,1003
17:18:14.724,,-58,239,1018
17:18:14.734,,-70,250,1023
17:18:14.744,,-71,251,991
17:18:14.754,,-40,242,965
17:18:14.764,,-30,240,948
17:18:14.774,,-37,239,948
17:18:14.784,,-58,237,963
17:18:14.794,,-63,237,976
17:18:14.804,,-53,228,981
17:18:14.814,,-52,222,981
17:18:14.824,,-66,221,992
17:18:14.834,,-77,236,1000
17:18:14.844,,-81,251,1000
17:18:14.854,,-71,250,995
17:18:14.864,,-72,243,997
17:18:14.874,,-79,249,998
17:18:14.884,,-87,256,989
17:18:14.894,,-86,256,973
17:18:14.904,,-66,249,948
17:18:14.914,,-38,241,923
17:18:14.924,,-22,235,907
17:18:14.934,,-27,239,900
17:18:14.944,,-43,258,904
17:18:14.954,,-66,266,936
17:18:14.964,,-95,250,975
17:18:14.974,,-104,232,996
17:18:14.984,,-94,230,995
17:18:14.994,,-84,235,979
17:18:15.004,,-61,226,951
17:18:15.014,,-62,214,954
17:18:15.024,,-73,218,955
17:18:15.034,,-76,235,957
17:18:15.044,,-77,248,960
17:18:15.054,,-77,246,968
17:18:15.064,,-79,236,979
17:18:15.074,,-73,225,983
17:18:15.084,,-61,216,981
17:18:15.094,,-50,210,981
17:18:15.104,,-45,208,986
17:18:15.114,,-38,209,986
17:18:15.124,,-34,209,989
17:18:15.134,,-27,223,986
17:18:15.144,,-32,230,985
17:18:15.154,,-34,235,969
17:18:15.164,,-27,234,958
17:18:15.174,,-28,228,951
17:18:15.184,,-32,221,939
17:18:15.194,,-32,217,930
17:18:15.204,,-31,220,926
17:18:15.214,,-42,218,942
17:18:15.224,,-64,212,959
17:18:15.234,,-74,209,972
17:18:15.244,,-75,212,979
17:18:15.365,,-47,228,920
17:18:15.366,,-122,218,962
17:18:15.367,,-122,218,962
17:18:15.369,,-122,218,962
17:18:15.370,,-122,218,962
17:18:15.372,,-122,218,962
17:18:15.373,,-122,218,962
17:18:15.374,,-122,218,962
17:18:15.376,,-98,228,965
17:18:15.377,,-98,228,965
17:18:15.378,,-98,228,965
17:18:15.380,,-98,228,965
17:18:15.381,,-98,228,965
17:18:15.384,,-98,244,946
17:18:15.394,,-43,237,959
17:18:15.404,,-95,225,994
17:18:15.414,,-123,222,1009
17:18:15.424,,-62,226,984
17:18:15.434,,-2,234,961
17:18:15.444,,-56,228,987
17:18:15.454,,-131,214,1024
17:18:15.464,,-129,213,1008
17:18:15.474,,-60,230,973
17:18:15.484,,-50,241,976
17:18:15.494,,-118,242,1007
17:18:15.504,,-156,246,1044
17:18:15.514,,-95,242,992
17:18:15.524,,-85,223,968
17:18:15.534,,-83,199,941
17:18:15.544,,-55,190,922
17:18:15.554,,-51,188,910
17:18:15.564,,-83,187,911
17:18:15.574,,-81,188,897
17:18:15.584,,-31,170,884
17:18:15.594,,-19,145,891
17:18:15.604,,-59,147,923
17:18:15.614,,-109,181,958
17:18:15.624,,-115,223,979
17:18:15.634,,-113,234,990
17:18:15.644,,-135,219,1003
17:18:15.654,,-111,240,992
17:18:15.664,,-110,273,1002
17:18:15.674,,-170,289,1031
17:18:15.684,,-197,291,1040
17:18:15.694,,-154,288,1020
17:18:15.704,,-105,275,983
17:18:15.714,,-96,261,969
17:18:15.724,,-105,253,965
17:18:15.734,,-84,247,955
17:18:15.744,,-68,240,952
17:18:15.754,,-81,222,949
17:18:15.764,,-86,208,958
17:18:15.774,,-65,195,946
17:18:15.784,,-58,182,948
17:18:15.794,,-50,181,950
17:18:15.804,,-64,180,968
17:18:15.814,,-95,183,981
17:18:15.824,,-87,193,979
17:18:15.834,,-60,205,973
17:18:15.844,,-60,212,986
17:18:15.854,,-105,211,1007
17:18:15.864,,-121,208,1021
17:18:15.874,,-115,210,1018
17:18:15.884,,-105,217,1000
17:18:15.894,,-107,220,965
17:18:15.904,,-90,215,934
17:18:15.914,,-53,216,909
17:18:15.924,,-45,219,902
17:18:15.934,,-71,220,921
17:18:15.944,,-88,223,934
17:18:15.954,,-61,224,933
17:18:15.964,,-46,225,944
17:18:15.974,,-67,221,972
17:18:15.984,,-80,216,1001
17:18:15.994,,-86,211,1026
17:18:16.004,,-118,201,1040
17:18:16.014,,-114,202,1024
17:18:16.024,,-68,209,978
17:18:16.034,,-109,210,1011
17:18:16.044,,-162,208,1006
17:18:16.054,,-68,228,939
17:18:16.064,,6,241,905
17:18:16.074,,-57,230,920
17:18:16.084,,-119,218,943
17:18:16.094,,-76,214,939
17:18:16.104,,-27,215,923
17:18:16.114,,-51,217,926
17:18:16.124,,-83,222,955
17:18:16.134,,-77,225,975
17:18:16.144,,-73,217,995
17:18:16.154,,-110,223,1029
17:18:16.164,,-90,235,1008
17:18:16.174,,-57,237,985
17:18:16.184,,-90,224,996
17:18:16.194,,-118,219,995
17:18:16.204,,-78,223,970
17:18:16.214,,-42,229,943
17:18:16.224,,-65,228,951
17:18:16.234,,-106,222,973
17:18:16.244,,-99,212,973
17:18:16.254,,-62,207,946
17:18:16.264,,-41,215,919
17:18:16.274,,-63,221,930
17:18:16.284,,-84,219,974
17:18:16.294,,-101,217,992
17:18:16.304,,-119,220,993
17:18:16.314,,-99,223,980
17:18:16.324,,-73,222,972
17:18:16.334,,-86,212,982
17:18:16.344,,-110,212,989
17:18:16.354,,-98,217,984
17:18:16.364,,-87,214,980
17:18:16.374,,-98,203,979
17:18:16.384,,-93,197,963
17:18:16.394,,-75,201,950
17:18:16.404,,-75,208,939
17:18:16.414,,-88,215,944
17:18:16.424,,-83,219,953
17:18:16.434,,-101,219,969
17:18:16.444,,-106,223,970
17:18:16.454,,-102,231,979
17:18:16.464,,-110,232,989
17:18:16.474,,-113,222,1002
17:18:16.484,,-122,215,1006
17:18:16.494,,-116,213,1004
17:18:16.504,,-105,212,989
17:18:16.514,,-81,210,974
17:18:16.524,,-91,205,980
17:18:16.534,,-116,199,987
17:18:16.544,,-83,208,953
17:18:16.554,,-79,217,944
17:18:16.564,,-106,221,956
17:18:16.574,,-123,213,968
17:18:16.584,,-119,209,970
17:18:16.594,,-108,215,957
17:18:16.604,,-103,222,953
17:18:16.614,,-111,219,961
17:18:16.624,,-118,211,967
17:18:16.634,,-111,207,964
