Sensors' Acquisition [Hz]: Acc@104.0 
hh:mm:ss.ms, Annotation , AccX [mg], AccY, AccZ
17:19:15.348,,-570,-1174,1988
17:19:15.358,,-538,-1213,1954
17:19:15.368,,-420,-1234,1826
17:19:15.378,,-304,-1163,1600
17:19:15.388,,-237,-1022,1483
17:19:15.398,,-232,-983,1434
17:19:15.408,,-120,-910,1134
17:19:15.418,,-60,-830,955
17:19:15.428,,-53,-739,851
17:19:15.438,>Gesture,,,
17:19:15.439,,-95,-716,733
17:19:15.448,,-156,-716,620
17:19:15.458,,-189,-683,624
17:19:15.468,,-156,-697,542
17:19:15.478,,-133,-666,467
17:19:15.488,,-125,-610,319
17:19:15.498,,-128,-547,181
17:19:15.508,,-140,-518,130
17:19:15.518,,-155,-486,53
17:19:15.528,,-165,-421,-45
17:19:15.538,,-222,-390,8
17:19:15.548,,-216,-433,88
17:19:15.558,,-209,-405,70
17:19:15.568,,-187,-297,-59
17:19:15.578,,-170,-210,-249
17:19:15.588,,-145,-135,-342
17:19:15.598,,-78,-102,-382
17:19:15.608,,15,-44,-439
17:19:15.618,,63,16,-526
17:19:15.628,,38,91,-631
17:19:15.638,,-3,168,-685
17:19:15.648,,-39,234,-676
17:19:15.658,,-43,281,-799
17:19:15.668,,-89,534,-1142
17:19:15.678,,-64,611,-1309
17:19:15.688,,-13,650,-1498
17:19:15.698,,7,676,-1576
17:19:15.708,,42,678,-1627
17:19:15.718,,96,682,-1733
17:19:15.728,,154,687,-1815
17:19:15.738,,185,650,-1795
17:19:15.748,,190,606,-1729
17:19:15.758,,168,588,-1605
17:19:15.768,,145,577,-1550
17:19:15.778,,113,552,-1459
17:19:15.788,,77,543,-1360
17:19:15.798,,37,559,-1307
17:19:15.808,,-17,519,-1240
17:19:15.818,,-28,508,-1181
17:19:15.828,,-38,474,-1114
17:19:15.838,,-61,394,-948
17:19:15.848,,-78,312,-773
17:19:15.858,,-109,236,-626
17:19:15.868,,-122,157,-525
17:19:15.878,,-110,110,-533
17:19:15.888,,-101,88,-569
17:19:15.898,,-53,55,-571
17:19:15.908,,33,-10,-474
17:19:15.918,,73,-136,-126
17:19:15.928,,71,-302,-2
17:19:15.938,,36,-316,72
17:19:15.948,,-51,-280,136
17:19:15.958,,-119,-278,169
17:19:15.968,,-136,-247,191
17:19:15.978,,-119,-183,196
17:19:15.988,,-130,-129,262
17:19:15.998,,-119,-123,370
17:19:16.008,,-75,-143,499
17:19:16.018,,-51,-203,667
17:19:16.028,,-56,-358,893
17:19:16.038,,-55,-454,993
17:19:16.048,,-44,-431,1052
17:19:16.058,,-93,-449,1093
17:19:16.068,,-223,-483,1229
17:19:16.078,,-322,-498,1364
17:19:16.088,,-359,-520,1390
17:19:16.098,,-358,-552,1337
17:19:16.108,,-313,-518,1302
17:19:16.118,,-244,-534,1246
17:19:16.128,,-212,-514,1237
17:19:16.138,,-198,-476,1286
17:19:16.148,,-181,-391,1273
17:19:16.158,,-208,-332,1243
17:19:16.168,,-263,-339,1302
17:19:16.178,,-359,-475,1618
17:19:16.188,,-321,-536,1763
17:19:16.198,,-265,-617,1856
17:19:16.208,,-213,-660,1943
17:19:16.218,,-176,-698,1980
17:19:16.228,,-233,-736,1998
17:19:16.238,,-288,-795,1998
17:19:16.248,,-294,-851,1998
17:19:16.258,,-299,-882,1998
17:19:16.268,,-290,-929,1998
17:19:16.278,,-294,-917,1998
17:19:16.288,,-335,-889,1998
17:19:16.298,,-336,-862,1998
17:19:16.308,,-277,-782,1990
17:19:16.318,,-271,-820,1955
17:19:16.328,,-283,-778,1952
17:19:16.338,,-349,-856,1878
17:19:16.348,,-344,-900,1890
17:19:16.358,,-269,-904,1851
17:19:16.368,,-193,-923,1764
17:19:16.378,,-157,-897,1656
17:19:16.388,,-132,-865,1544
17:19:16.398,,-129,-815,1469
17:19:16.408,,-174,-723,1425
17:19:16.418,,-200,-685,1310
17:19:16.428,,-285,-613,1260
17:19:16.438,,-297,-675,1184
17:19:16.448,,-389,-727,1267
17:19:16.458,,-325,-742,1263
17:19:16.468,,-290,-713,1218
17:19:16.478,,-306,-626,1089
17:19:16.488,,-258,-511,985
17:19:16.498,,-209,-448,819
17:19:16.508,,-223,-370,763
17:19:16.518,,-213,-304,678
17:19:16.528,,-183,-274,536
17:19:16.538,,-195,-198,417
17:19:16.548,,-184,-185,355
17:19:16.558,,-145,-216,150
17:19:16.568,,-100,-160,43
17:19:16.578,,-96,-112,-125
17:19:16.588,,-104,-103,-312
17:19:16.598,,-128,-73,-420
17:19:16.608,,-132,-49,-475
17:19:16.618,,-115,-85,-498
17:19:16.628,,-92,-145,-523
17:19:16.638,,-80,-180,-566
17:19:16.648,,-26,-143,-589
17:19:16.658,,-119,-228,-719
17:19:16.668,,-110,-198,-775
17:19:16.678,,-126,-173,-841
17:19:16.688,,-147,-46,-1030
17:19:16.698,,-166,-21,-1194
17:19:16.708,,-154,-54,-1306
17:19:16.718,,-113,-102,-1356
17:19:16.728,,-74,-144,-1381
17:19:16.738,,-58,-142,-1375
17:19:16.748,,-74,-158,-1352
17:19:16.758,,-108,-152,-1352
17:19:16.879,,-279,-172,-876
17:19:16.880,,-279,-172,-876
17:19:16.882,,-279,-172,-876
17:19:16.883,,-279,-172,-799
17:19:16.884,,-272,-187,-799
17:19:16.886,,-272,-187,-799
17:19:16.887,,-272,-187,-799
17:19:16.888,,-272,-187,-799
17:19:16.890,,-272,-187,-799
17:19:16.891,,-272,-187,-799
17:19:16.893,,-255,-194,-734
17:19:16.894,,-255,-194,-734
17:19:16.895,,-255,-194,-734
17:19:16.898,,-255,-194,-734
17:19:16.908,,-243,-202,-706
17:19:16.918,,-220,-218,-686
17:19:16.928,,-192,-202,-622
17:19:16.938,,-169,-213,-558
17:19:16.948,,-136,-220,-391
17:19:16.958,,-107,-229,-299
17:19:16.968,,-82,-221,-213
17:19:16.978,,-64,-236,-115
17:19:16.988,,-71,-291,-15
17:19:16.998,,-105,-344,54
17:19:17.008,,-141,-349,140
17:19:17.018,,-156,-314,218
17:19:17.028,,-125,-299,330
17:19:17.038,,-55,-335,458
17:19:17.048,,-8,-413,572
17:19:17.058,,1,-534,757
17:19:17.068,,27,-607,926
17:19:17.078,,-88,-730,1052
17:19:17.088,,-186,-691,1104
17:19:17.098,,-231,-673,1158
17:19:17.108,,-248,-651,1258
17:19:17.118,,-254,-696,1385
17:19:17.128,,-223,-748,1449
17:19:17.138,,-180,-842,1491
17:19:17.148,,-149,-929,1513
17:19:17.158,,-105,-993,1502
17:19:17.168,,-108,-1013,1564
17:19:17.178,,-147,-1012,1654
17:19:17.188,,-177,-1043,1746
17:19:17.198,,-177,-1089,1962
17:19:17.208,,-195,-1262,1997
17:19:17.218,,-160,-1384,1998
17:19:17.228,,-130,-1477,1998
17:19:17.238,,-112,-1521,1998
17:19:17.248,,-120,-1537,1998
17:19:17.258,,-198,-1514,1998
17:19:17.268,,-312,-1434,1998
17:19:17.278,,-394,-1340,1998
17:19:17.288,,-377,-1338,1998
17:19:17.298,,-305,-1259,1998
17:19:17.308,,-266,-1278,1990
17:19:17.318,,-208,-1202,1905
17:19:17.328,,-204,-1206,1766
17:19:17.338,,-243,-1030,1690
17:19:17.348,,-233,-933,1627
17:19:17.358,,-272,-915,1482
17:19:17.368,,-253,-842,1351
17:19:17.378,,-237,-812,1262
17:19:17.388,,-225,-785,1140
17:19:17.398,,-215,-752,1093
17:19:17.408,,-212,-732,1062
17:19:17.418,,-189,-711,1033
17:19:17.428,,-205,-658,1003
17:19:17.438,,-204,-665,865
17:19:17.448,,-225,-582,812
17:19:17.458,,-202,-492,673
17:19:17.468,,-231,-444,605
17:19:17.478,,-245,-381,533
17:19:17.488,,-249,-351,489
17:19:17.498,,-243,-386,444
17:19:17.508,,-227,-467,452
17:19:17.518,,-201,-504,423
17:19:17.528,,-166,-462,370
17:19:17.538,,-151,-367,244
17:19:17.548,,-201,-239,80
17:19:17.558,,-234,-160,27
17:19:17.568,,-230,-152,-27
17:19:17.578,,-240,-151,-103
17:19:17.588,,-177,-129,-359
17:19:17.598,,-117,-94,-454
17:19:17.608,,-107,-140,-565
17:19:17.618,,-106,-177,-653
17:19:17.628,,-122,-168,-684
17:19:17.638,,-131,-140,-737
17:19:17.648,,-166,-103,-826
17:19:17.658,,-196,-73,-879
17:19:17.668,,-235,-67,-947
17:19:17.678,,-262,-90,-986
17:19:17.688,,-285,-102,-1039
17:19:17.698,,-274,-34,-1101
17:19:17.708,,-276,-26,-1174
17:19:17.718,,-217,-91,-1290
17:19:17.728,,-207,-100,-1361
17:19:17.738,,-216,-105,-1423
17:19:17.748,,-229,-69,-1479
17:19:17.758,,-277,-45,-1510
17:19:17.768,,-305,-20,-1498
17:19:17.778,,-397,-83,-1537
17:19:17.788,,-422,-50,-1512
17:19:17.798,,-445,-78,-1491
17:19:17.808,,-426,-143,-1500
17:19:17.818,,-363,-175,-1470
17:19:17.828,,-309,-245,-1428
17:19:17.838,,-289,-254,-1390
17:19:17.848,,-336,-198,-1301
17:19:17.858,,-341,-191,-1269
17:19:17.868,,-338,-177,-1205
17:19:17.878,,-350,-173,-1132
17:19:17.888,,-375,-176,-1047
17:19:17.898,,-403,-186,-935
17:19:17.908,,-402,-209,-835
17:19:17.918,,-373,-208,-764
17:19:17.928,,-341,-202,-694
17:19:17.938,,-325,-196,-616
17:19:17.948,,-322,-193,-543
17:19:17.958,,-309,-184,-500
17:19:17.968,,-276,-154,-382
17:19:17.978,,-241,-124,-279
17:19:17.988,,-225,-143,-169
17:19:17.998,,-229,-171,-51
17:19:18.008,,-219,-186,59
17:19:18.018,,-200,-171,149
17:19:18.028,,-171,-133,226
17:19:18.038,,-134,-126,309
17:19:18.048,,-99,-139,408
17:19:18.058,,-92,-135,542
17:19:18.068,,-92,-163,640
17:19:18.078,,-112,-245,683
17:19:18.088,,-129,-314,700
17:19:18.098,,-131,-257,788
17:19:18.108,,-140,-203,863
17:19:18.118,,-116,-215,979
17:19:18.128,,-96,-302,1092
17:19:18.138,,-108,-414,1195
17:19:18.148,,-131,-527,1226
17:19:18.158,,-170,-605,1240
17:19:18.168,,-204,-620,1262
17:19:18.178,,-214,-582,1286
17:19:18.304,,-488,-1184,1998
17:19:18.305,,-488,-1184,1998
17:19:18.307,,-488,-1184,1998
17:19:18.308,,-488,-1184,1998
17:19:18.310,,-488,-1184,1998
17:19:18.311,,-488,-1184,1998
17:19:18.312,,-504,-1165,1998
17:19:18.314,,-504,-1165,1998
17:19:18.315,,-504,-1165,1998
17:19:18.316,,-504,-1165,1998
17:19:18.318,,-504,-1165,1998
17:19:18.319,,-504,-1165,1998
17:19:18.320,,-504,-1165,1998
17:19:18.322,,-544,-1039,1998
17:19:18.328,,-544,-1039,1998
17:19:18.338,,-561,-1007,1998
17:19:18.348,,-588,-824,1998
17:19:18.358,,-673,-767,1802
17:19:18.368,,-639,-728,1742
17:19:18.378,,-614,-717,1622
17:19:18.388,,-600,-737,1479
17:19:18.398,,-599,-649,1413
17:19:18.408,,-581,-654,1311
17:19:18.418,,-532,-608,1280
17:19:18.428,,-546,-585,1213
17:19:18.438,,-548,-609,1180
17:19:18.448,,-546,-568,1134
17:19:18.458,,-546,-607,1025
17:19:18.468,,-473,-552,994
17:19:18.478,,-474,-587,902
17:19:18.488,,-499,-630,774
17:19:18.498,,-440,-616,775
17:19:18.508,,-369,-635,807
17:19:18.518,,-361,-612,820
17:19:18.528,,-367,-670,722
17:19:18.538,,-390,-669,672
17:19:18.548,,-358,-596,599
17:19:18.558,,-324,-590,545
17:19:18.568,,-311,-576,501
17:19:18.578,,-342,-588,438
17:19:18.588,,-370,-556,410
17:19:18.598,,-375,-527,382
17:19:18.608,,-374,-495,329
17:19:18.618,,-332,-477,278
17:19:18.628,,-357,-505,252
17:19:18.638,,-344,-447,265
17:19:18.648,,-376,-429,206
17:19:18.658,,-355,-461,106
17:19:18.668,,-349,-460,10
17:19:18.678,,-321,-405,-61
17:19:18.688,,-310,-412,-126
17:19:18.698,,-321,-399,-171
17:19:18.708,,-307,-356,-215
17:19:18.718,,-294,-322,-265
17:19:18.728,,-316,-374,-353
17:19:18.738,,-270,-308,-528
17:19:18.748,,-242,-317,-629
17:19:18.758,,-230,-316,-727
17:19:18.768,,-202,-322,-817
17:19:18.778,,-178,-358,-925
17:19:18.788,,-166,-377,-1012
17:19:18.798,,-163,-383,-1078
17:19:18.808,,-182,-386,-1098
17:19:18.818,,-217,-409,-1090
17:19:18.828,,-241,-437,-1071
17:19:18.838,,-258,-448,-1078
17:19:18.848,,-277,-460,-1045
17:19:18.858,,-297,-460,-1052
17:19:18.868,,-312,-460,-1066
17:19:18.878,,-342,-458,-1102
17:19:18.888,,-341,-386,-1067
17:19:18.898,,-352,-385,-1059
17:19:18.908,,-384,-429,-1100
17:19:18.918,,-359,-436,-1076
17:19:18.928,,-354,-449,-998
17:19:18.938,,-388,-464,-957
17:19:18.948,,-408,-443,-922
17:19:18.958,,-411,-406,-894
17:19:18.968,,-403,-393,-852
17:19:18.978,,-388,-399,-801
17:19:18.988,,-362,-401,-752
17:19:18.998,,-337,-394,-677
17:19:19.008,,-360,-368,-618
17:19:19.018,,-389,-375,-565
17:19:19.028,,-384,-394,-524
17:19:19.038,,-367,-416,-437
17:19:19.048,,-354,-419,-334
17:19:19.058,,-343,-437,-235
17:19:19.068,,-340,-414,-137
17:19:19.078,,-337,-401,-54
17:19:19.088,,-333,-389,-14
17:19:19.098,,-317,-348,1
17:19:19.108,,-326,-308,46
17:19:19.118,,-353,-273,156
17:19:19.128,,-357,-258,377
17:19:19.138,,-381,-303,490
17:19:19.148,,-449,-382,594
17:19:19.158,,-469,-410,690
17:19:19.168,,-448,-425,701
17:19:19.178,,-427,-436,692
17:19:19.188,,-365,-432,709
17:19:19.198,,-278,-421,747
17:19:19.208,,-218,-415,810
17:19:19.218,,-212,-437,907
17:19:19.228,,-283,-529,976
17:19:19.238,,-394,-641,1010
17:19:19.248,,-455,-702,1018
17:19:19.258,,-423,-689,985
17:19:19.268,,-344,-641,995
17:19:19.278,,-273,-658,1042
17:19:19.288,,-242,-671,1117
17:19:19.298,,-275,-700,1188
17:19:19.308,,-357,-774,1241
17:19:19.318,,-421,-864,1306
17:19:19.328,,-465,-900,1430
17:19:19.338,,-510,-915,1542
17:19:19.348,,-581,-917,1649
17:19:19.358,,-624,-904,1758
17:19:19.368,,-635,-927,1845
17:19:19.378,,-627,-975,1991
17:19:19.388,,-550,-1077,1987
17:19:19.398,,-547,-1107,1997
17:19:19.408,,-601,-1165,1973
17:19:19.418,,-631,-1116,1892
17:19:19.428,,-621,-1059,1840
17:19:19.438,,-564,-965,1791
17:19:19.448,,-515,-937,1671
17:19:19.458,,-477,-931,1565
17:19:19.468,,-474,-902,1471
17:19:19.478,,-463,-904,1396
17:19:19.488,,-442,-860,1386
17:19:19.498,,-426,-942,1256
17:19:19.508,,-407,-901,1210
17:19:19.518,,-408,-779,1209
17:19:19.528,,-414,-808,1038
17:19:19.538,,-370,-762,940
17:19:19.548,,-370,-749,873
17:19:19.558,,-349,-791,796
17:19:19.568,,-337,-800,761
17:19:19.578,,-351,-811,843
17:19:19.588,,-330,-804,854
17:19:19.598,,-366,-810,880
17:19:19.719,,-284,-562,510
17:19:19.720,,-284,-562,510
17:19:19.722,,-305,-514,373
17:19:19.723,,-305,-514,373
17:19:19.724,,-305,-514,373
17:19:19.726,,-305,-514,373
17:19:19.727,,-305,-514,373
17:19:19.729,,-305,-514,373
17:19:19.730,,-305,-514,373
17:19:19.731,,-280,-472,211
17:19:19.733,,-280,-472,211
17:19:19.734,,-280,-472,211
17:19:19.735,,-280,-472,211
17:19:19.738,,-280,-472,211
17:19:19.748,,-264,-327,73
17:19:19.758,,-278,-300,-78
17:19:19.768,,-252,-259,-230
17:19:19.778,,-240,-283,-296
17:19:19.788,,-227,-277,-345
17:19:19.798,,-249,-228,-417
17:19:19.808,,-308,-148,-549
17:19:19.818,,-336,-108,-662
17:19:19.828,,-363,-79,-754
17:19:19.838,,-387,-41,-832
17:19:19.848,,-385,-44,-935
17:19:19.858,,-340,-81,-1006
17:19:19.868,,-287,-122,-1053
17:19:19.878,,-248,-180,-1091
17:19:19.888,,-222,-218,-1119
17:19:19.898,,-244,-243,-1217
17:19:19.908,,-210,-197,-1172
17:19:19.918,,-328,-245,-1177
17:19:19.928,,-311,-295,-1179
17:19:19.938,,-289,-296,-1167
17:19:19.948,,-288,-306,-1193
17:19:19.958,,-286,-332,-1101
17:19:19.968,,-334,-406,-998
17:19:19.978,,-371,-440,-911
17:19:19.988,,-413,-430,-841
17:19:19.998,,-421,-437,-786
17:19:20.008,,-428,-449,-740
17:19:20.018,,-417,-454,-712
17:19:20.028,,-319,-440,-713
17:19:20.038,,-269,-424,-680
17:19:20.048,,-241,-415,-636
17:19:20.058,,-250,-401,-575
17:19:20.068,,-305,-417,-496
17:19:20.078,,-391,-434,-387
17:19:20.088,,-442,-455,-289
17:19:20.098,,-406,-501,-210
17:19:20.108,,-334,-516,-152
17:19:20.118,,-278,-525,-75
17:19:20.128,,-226,-527,-16
17:19:20.138,,-193,-456,38
17:19:20.148,,-195,-425,107
17:19:20.158,,-231,-349,202
17:19:20.168,,-283,-326,291
17:19:20.178,,-339,-335,408
17:19:20.188,,-370,-349,544
17:19:20.198,,-333,-367,706
17:19:20.208,,-289,-422,825
17:19:20.218,,-274,-513,890
17:19:20.228,,-263,-589,919
17:19:20.238,,-224,-601,905
17:19:20.248,,-208,-573,836
17:19:20.258,,-205,-552,826
17:19:20.268,,-200,-495,866
17:19:20.278,,-204,-518,1041
17:19:20.288,,-224,-609,1160
17:19:20.298,,-252,-709,1219
17:19:20.308,,-258,-793,1230
17:19:20.318,,-262,-823,1255
17:19:20.328,,-233,-813,1278
17:19:20.338,,-194,-769,1314
17:19:20.348,,-165,-772,1361
17:19:20.358,,-158,-807,1411
17:19:20.368,,-168,-851,1434
17:19:20.378,,-166,-876,1460
17:19:20.388,,-174,-889,1459
17:19:20.398,,-207,-918,1514
17:19:20.408,,-196,-1035,1660
17:19:20.418,,-183,-1106,1697
17:19:20.428,,-132,-1139,1716
17:19:20.438,,-95,-1140,1688
17:19:20.448,,-85,-1132,1644
17:19:20.458,,-84,-1144,1638
17:19:20.468,,-78,-1159,1636
17:19:20.478,,-44,-1181,1656
17:19:20.488,,-53,-1205,1692
17:19:20.498,,-123,-1197,1745
17:19:20.508,,-171,-1169,1762
17:19:20.518,,-170,-1156,1720
17:19:20.528,,-175,-1088,1626
17:19:20.538,,-142,-942,1487
17:19:20.548,,-157,-1015,1312
17:19:20.558,,-160,-1023,1207
17:19:20.568,,-107,-930,1253
17:19:20.578,,-109,-943,1278
17:19:20.588,,-160,-911,1248
17:19:20.598,,-197,-931,1193
17:19:20.608,,-200,-877,1157
17:19:20.618,,-218,-871,1138
17:19:20.628,,-214,-778,1099
17:19:20.638,,-229,-736,1008
17:19:20.648,,-237,-761,933
17:19:20.658,,-174,-791,913
17:19:20.668,,-103,-866,939
17:19:20.678,,-125,-854,897
17:19:20.688,,-146,-853,853
17:19:20.698,,-168,-746,839
17:19:20.708,,-187,-672,773
17:19:20.718,,-203,-635,660
17:19:20.728,,-187,-589,573
17:19:20.738,,-194,-531,491
17:19:20.748,,-224,-465,348
17:19:20.758,,-246,-437,252
17:19:20.768,,-251,-385,150
17:19:20.778,,-251,-362,51
17:19:20.788,,-253,-370,-82
17:19:20.798,,-244,-318,-182
17:19:20.808,,-224,-304,-272
17:19:20.818,,-214,-316,-378
17:19:20.828,,-209,-323,-498
17:19:20.838,,-187,-333,-599
17:19:20.848,,-177,-315,-679
17:19:20.858,,-191,-274,-750
17:19:20.868,,-209,-260,-820
17:19:20.878,,-241,-232,-882
17:19:20.888,,-269,-221,-924
17:19:20.898,,-305,-229,-944
17:19:20.908,,-326,-228,-948
17:19:20.918,,-335,-248,-969
17:19:20.928,,-260,-283,-981
17:19:20.938,,-295,-329,-1000
17:19:20.948,,-258,-376,-1023
17:19:20.958,,-225,-359,-1020
17:19:20.968,,-215,-360,-1027
17:19:20.978,,-214,-370,-1019
17:19:20.988,,-199,-397,-1021
17:19:20.998,,-202,-426,-1004
17:19:21.008,,-198,-453,-946
17:19:21.018,,-196,-481,-896
17:19:21.145,,-329,-390,23
17:19:21.147,,-329,-390,23
17:19:21.148,,-329,-390,23
17:19:21.149,,-329,-390,23
17:19:21.151,,-344,-377,96
17:19:21.152,,-344,-377,96
17:19:21.153,,-344,-377,96
17:19:21.155,,-344,-377,96
17:19:21.156,,-344,-377,96
17:19:21.157,,-344,-377,96
17:19:21.159,,-344,-377,185
17:19:21.160,,-326,-370,185
17:19:21.162,,-326,-370,185
17:19:21.163,,-326,-370,185
17:19:21.168,,-326,-370,185
17:19:21.178,,-286,-344,333
17:19:21.188,,-272,-319,367
17:19:21.198,,-300,-329,383
17:19:21.208,,-345,-365,406
17:19:21.218,,-335,-401,432
17:19:21.228,,-283,-407,436
17:19:21.238,,-221,-379,472
17:19:21.248,,-159,-363,507
17:19:21.258,,-134,-373,570
17:19:21.268,,-145,-396,621
17:19:21.278,,-143,-413,674
17:19:21.288,,-195,-417,684
17:19:21.298,,-246,-415,710
17:19:21.308,,-235,-408,872
17:19:21.318,,-187,-473,1002
17:19:21.328,,-142,-486,1201
17:19:21.338,,-139,-526,1370
17:19:21.348,,-161,-595,1502
17:19:21.358,,-218,-697,1610
17:19:21.368,,-271,-758,1783
17:19:21.378,,-304,-827,1907
17:19:21.388,,-329,-979,1985
17:19:21.398,,-292,-1041,1998
17:19:21.408,,-249,-1086,1998
17:19:21.418,,-213,-1117,1998
17:19:21.428,,-195,-1118,1997
17:19:21.438,,-255,-1059,1963
17:19:21.448,,-291,-1044,1968
17:19:21.458,,-301,-1069,1991
17:19:21.468,,-308,-1070,1993
17:19:21.478,,-324,-1041,1958
17:19:21.488,,-334,-1017,1887
17:19:21.498,,-336,-986,1829
17:19:21.508,,-312,-988,1765
17:19:21.518,,-283,-967,1762
17:19:21.528,,-311,-1019,1720
17:19:21.538,,-247,-946,1690
17:19:21.548,,-276,-989,1619
17:19:21.558,,-381,-1021,1558
17:19:21.568,,-300,-908,1535
17:19:21.578,,-301,-937,1447
17:19:21.588,,-268,-895,1373
17:19:21.598,,-263,-874,1275
17:19:21.608,,-286,-826,1210
17:19:21.618,,-285,-723,1202
17:19:21.628,,-289,-711,1086
17:19:21.638,,-313,-699,999
17:19:21.648,,-316,-750,931
17:19:21.658,,-310,-745,929
17:19:21.668,,-304,-728,950
17:19:21.678,,-324,-718,975
17:19:21.688,,-320,-674,881
17:19:21.698,,-292,-602,784
17:19:21.708,,-296,-593,649
17:19:21.718,,-269,-576,583
17:19:21.728,,-255,-567,529
17:19:21.738,,-249,-564,509
17:19:21.748,,-234,-564,461
17:19:21.758,,-240,-551,452
17:19:21.768,,-244,-491,422
17:19:21.778,,-257,-478,324
17:19:21.788,,-264,-449,216
17:19:21.798,,-257,-412,123
17:19:21.808,,-240,-361,29
17:19:21.818,,-244,-308,-101
17:19:21.828,,-256,-274,-204
17:19:21.838,,-272,-230,-331
17:19:21.848,,-267,-195,-452
17:19:21.858,,-258,-200,-538
17:19:21.868,,-243,-201,-601
17:19:21.878,,-213,-202,-665
17:19:21.888,,-187,-199,-742
17:19:21.898,,-174,-196,-800
17:19:21.908,,-164,-167,-852
17:19:21.918,,-169,-138,-908
17:19:21.928,,-195,-118,-965
17:19:21.938,,-219,-129,-991
17:19:21.948,,-215,-163,-1031
17:19:21.958,,-214,-209,-1058
17:19:21.968,,-188,-283,-1067
17:19:21.978,,-157,-344,-1070
17:19:21.988,,-98,-408,-1072
17:19:21.998,,-41,-468,-1061
17:19:22.008,,-9,-480,-1065
17:19:22.018,,-9,-470,-1101
17:19:22.028,,-25,-449,-1124
17:19:22.038,,-50,-422,-1119
17:19:22.048,,-84,-412,-1073
17:19:22.058,,-106,-403,-1030
17:19:22.068,,-121,-382,-1001
17:19:22.078,,-185,-343,-915
17:19:22.088,,-201,-297,-861
17:19:22.098,,-211,-282,-789
17:19:22.108,,-201,-291,-710
17:19:22.118,,-196,-300,-609
17:19:22.128,,-223,-326,-525
17:19:22.138,,-216,-311,-454
17:19:22.148,,-180,-269,-389
17:19:22.158,,-133,-243,-309
17:19:22.168,,-85,-222,-192
17:19:22.178,,-62,-202,-65
17:19:22.188,,-79,-174,51
17:19:22.198,,-112,-139,286
17:19:22.208,,-199,-156,397
17:19:22.218,,-191,-183,496
17:19:22.228,,-134,-191,574
17:19:22.238,,-84,-211,672
17:19:22.248,,-68,-196,794
17:19:22.258,,-54,-193,920
17:19:22.268,,-65,-207,1006
17:19:22.278,,-63,-217,1105
17:19:22.288,,-84,-266,1197
17:19:22.298,,-145,-322,1325
17:19:22.308,,-191,-369,1502
17:19:22.318,,-216,-414,1673
17:19:22.328,,-203,-519,1874
17:19:22.338,,-132,-798,1884
17:19:22.348,,0,-859,1866
17:19:22.358,,88,-932,1782
17:19:22.368,,114,-914,1771
17:19:22.378,,45,-950,1850
17:19:22.388,,-15,-935,1950
17:19:22.398,,-98,-951,1998
17:19:22.408,,-195,-995,1998
17:19:22.418,,-232,-1036,1998
17:19:22.428,,-198,-1021,1998
17:19:22.438,,-162,-1033,1998
17:19:22.448,,-166,-1037,1998
17:19:22.458,,-180,-1007,1990
17:19:22.579,,-262,-748,1320
17:19:22.581,,-262,-748,1320
17:19:22.582,,-262,-748,1320
17:19:22.583,,-262,-748,1320
17:19:22.585,,-262,-748,1320
17:19:22.586,,-262,-748,1320
17:19:22.588,,-262,-835,1159
17:19:22.589,,-230,-835,1159
17:19:22.590,,-230,-835,1159
17:19:22.592,,-230,-835,1159
17:19:22.593,,-230,-835,1159
17:19:22.594,,-230,-835,1159
17:19:22.596,,-230,-835,1159
17:19:22.598,,-185,-854,1191
17:19:22.608,,-174,-896,1203
17:19:22.618,,-190,-920,1176
17:19:22.628,,-181,-968,1194
17:19:22.638,,-163,-934,1172
17:19:22.648,,-161,-809,1237
17:19:22.658,,-255,-769,1089
17:19:22.668,,-308,-754,1037
17:19:22.678,,-252,-762,965
17:19:22.688,,-214,-805,992
17:19:22.698,,-198,-807,1031
17:19:22.708,,-224,-803,1118
17:19:22.718,,-270,-729,968
17:19:22.728,,-245,-636,928
17:19:22.738,,-222,-552,795
17:19:22.748,,-194,-408,672
17:19:22.758,,-235,-280,481
17:19:22.768,,-277,-345,317
17:19:22.778,,-255,-403,281
17:19:22.788,,-175,-340,321
17:19:22.798,,-109,-335,247
17:19:22.808,,-102,-292,113
17:19:22.818,,-125,-217,-39
17:19:22.828,,-139,-107,-235
17:19:22.838,,-163,-73,-390
17:19:22.848,,-196,12,-535
17:19:22.858,,-209,18,-645
17:19:22.868,,-213,27,-750
17:19:22.878,,-219,32,-836
17:19:22.888,,-228,43,-938
17:19:22.898,,-233,4,-1016
17:19:22.908,,-234,-28,-1068
17:19:22.918,,-223,-41,-1113
17:19:22.928,,-201,-63,-1159
17:19:22.938,,-180,-115,-1182
17:19:22.948,,-171,-190,-1194
17:19:22.958,,-165,-247,-1231
17:19:22.968,,-143,-264,-1269
17:19:22.978,,-112,-321,-1278
17:19:22.988,,-109,-351,-1288
17:19:22.998,,-120,-352,-1272
17:19:23.008,,-139,-336,-1283
17:19:23.018,,-152,-313,-1301
17:19:23.028,,-159,-313,-1298
17:19:23.038,,-161,-307,-1270
17:19:23.048,,-162,-315,-1202
17:19:23.058,,-162,-344,-1111
17:19:23.068,,-163,-371,-1029
17:19:23.078,,-168,-377,-957
17:19:23.088,,-189,-357,-874
17:19:23.098,,-215,-287,-812
17:19:23.108,,-226,-239,-780
17:19:23.118,,-209,-221,-721
17:19:23.128,,-180,-226,-623
17:19:23.138,,-183,-250,-466
17:19:23.148,,-164,-255,-302
17:19:23.158,,-128,-275,-171
17:19:23.168,,-99,-315,-61
17:19:23.178,,-83,-321,19
17:19:23.188,,-86,-308,110
17:19:23.198,,-58,-291,221
17:19:23.208,,-9,-253,354
17:19:23.218,,12,-260,533
17:19:23.228,,-28,-402,920
17:19:23.238,,-86,-502,1069
17:19:23.248,,-122,-584,1159
17:19:23.258,,-168,-607,1148
17:19:23.268,,-229,-577,1080
17:19:23.278,,-239,-494,1027
17:19:23.288,,-186,-345,1015
17:19:23.298,,-148,-249,1005
17:19:23.308,,-88,-233,1047
17:19:23.318,,-62,-284,1103
17:19:23.328,,-107,-431,1079
17:19:23.338,,-99,-583,1075
17:19:23.348,,-62,-714,1051
17:19:23.358,,51,-775,999
17:19:23.368,,107,-711,1025
17:19:23.378,,88,-655,1086
17:19:23.388,,16,-656,1209
17:19:23.398,,-87,-708,1309
17:19:23.408,,-189,-776,1398
17:19:23.418,,-238,-854,1475
17:19:23.428,,-224,-929,1521
17:19:23.438,,-164,-990,1582
17:19:23.448,,-97,-1038,1611
17:19:23.458,,-61,-1049,1677
17:19:23.468,,-61,-1074,1728
17:19:23.478,,-108,-1086,1784
17:19:23.488,,-185,-1157,1926
17:19:23.498,,-230,-1168,1965
17:19:23.508,,-244,-1154,1998
17:19:23.518,,-254,-1126,1998
17:19:23.528,,-258,-1073,1982
17:19:23.538,,-268,-1030,1955
17:19:23.548,,-272,-1006,1894
17:19:23.558,,-271,-962,1859
17:19:23.568,,-284,-927,1780
17:19:23.578,,-290,-935,1721
17:19:23.588,,-264,-929,1669
17:19:23.598,,-222,-794,1677
17:19:23.608,,-268,-890,1420
17:19:23.618,,-251,-859,1395
17:19:23.628,,-202,-898,1346
17:19:23.638,,-181,-911,1312
17:19:23.648,,-127,-884,1277
17:19:23.658,,-116,-888,1191
17:19:23.668,,-140,-847,1113
17:19:23.678,,-153,-797,1067
17:19:23.688,,-197,-731,1054
17:19:23.698,,-267,-727,1052
17:19:23.708,,-288,-783,1039
17:19:23.718,,-250,-783,1089
17:19:23.728,,-211,-780,1054
17:19:23.738,,-214,-768,890
17:19:23.748,,-221,-697,814
17:19:23.758,,-218,-629,779
17:19:23.768,,-236,-569,725
17:19:23.778,,-274,-560,685
17:19:23.788,,-318,-561,642
17:19:23.797,,-298,-530,643
17:19:23.808,,-286,-586,577
17:19:23.818,,-266,-564,521
17:19:23.827,,-249,-492,385
17:19:23.838,,-254,-513,294
17:19:23.848,,-260,-523,284
17:19:23.857,,-275,-443,277
17:19:23.868,,-305,-326,136
17:19:23.878,,-351,-258,19
17:19:23.887,,-371,-225,-77
17:19:24.016,,-389,-154,-897
17:19:24.017,,-373,-195,-970
17:19:24.018,,-373,-195,-970
17:19:24.020,,-373,-195,-970
17:19:24.021,,-373,-195,-970
17:19:24.022,,-373,-195,-970
17:19:24.024,,-373,-195,-970
17:19:24.025,,-373,-204,-1010
17:19:24.026,,-325,-204,-1010
17:19:24.028,,-325,-204,-1010
17:19:24.029,,-325,-204,-1010
17:19:24.031,,-325,-204,-1010
17:19:24.032,,-325,-204,-1010
17:19:24.033,,-325,-204,-1010
17:19:24.037,,-275,-248,-1030
17:19:24.047,,-178,-239,-1010
17:19:24.057,,-241,-338,-1114
17:19:24.067,,-180,-359,-1122
17:19:24.077,,-174,-346,-1148
17:19:24.087,,-185,-356,-1157
17:19:24.097,,-206,-351,-1163
17:19:24.107,,-203,-346,-1141
17:19:24.117,,-193,-341,-1105
17:19:24.127,,-173,-366,-1036
17:19:24.137,,-161,-377,-989
17:19:24.147,,-134,-391,-930
17:19:24.157,,-111,-399,-851
17:19:24.167,,-128,-417,-789
17:19:24.177,,-160,-410,-746
17:19:24.187,,-196,-381,-699
17:19:24.197,,-224,-343,-629
17:19:24.207,,-228,-331,-543
17:19:24.217,,-228,-333,-441
17:19:24.227,,-240,-312,-346
17:19:24.237,,-208,-287,-256
17:19:24.247,,-173,-271,-164
17:19:24.257,,-140,-235,-77
17:19:24.267,,-156,-221,-13
17:19:24.277,,-164,-190,67
17:19:24.287,,-162,-140,166
17:19:24.297,,-159,-135,270
17:19:24.307,,-207,-181,444
17:19:24.317,,-243,-199,669
17:19:24.327,,-242,-226,831
17:19:24.337,,-205,-216,964
17:19:24.347,,-155,-197,1066
17:19:24.357,,-135,-186,1111
17:19:24.367,,-144,-198,1154
17:19:24.377,,-158,-245,1383
17:19:24.387,,-167,-502,1477
17:19:24.397,,-141,-608,1533
17:19:24.407,,-107,-629,1539
17:19:24.417,,-62,-606,1525
17:19:24.427,,-10,-602,1506
17:19:24.437,,-12,-556,1512
17:19:24.447,,-9,-551,1491
17:19:24.457,,-13,-560,1464
17:19:24.467,,-4,-606,1462
17:19:24.477,,71,-708,1497
17:19:24.487,,137,-770,1588
17:19:24.497,,188,-804,1717
17:19:24.507,,170,-916,1941
17:19:24.517,,158,-945,1992
17:19:24.527,,191,-1009,1998
17:19:24.537,,236,-1057,1998
17:19:24.547,,268,-1072,1998
17:19:24.557,,280,-1097,1998
17:19:24.567,,286,-1106,1998
17:19:24.577,,234,-1124,1998
17:19:24.587,,180,-1089,1998
17:19:24.597,,4,-1088,1998
17:19:24.607,,58,-944,1894
17:19:24.617,,157,-846,1785
17:19:24.627,,229,-895,1751
17:19:24.637,,245,-908,1694
17:19:24.647,,210,-874,1661
17:19:24.657,,193,-904,1549
17:19:24.667,,192,-829,1544
17:19:24.677,,194,-806,1450
17:19:24.687,,134,-910,1313
17:19:24.697,,198,-822,1396
17:19:24.707,,216,-727,1361
17:19:24.717,,97,-686,1351
17:19:24.727,,41,-774,1237
17:19:24.737,,110,-755,1281
17:19:24.747,,130,-858,1266
17:19:24.757,,132,-895,1240
17:19:24.767,,76,-773,1247
17:19:24.777,,-3,-613,1222
17:19:24.787,,-92,-549,1144
17:19:24.797,,-125,-520,1072
17:19:24.807,,-105,-496,998
17:19:24.817,,-47,-483,932
17:19:24.827,,19,-467,819
17:19:24.837,,-3,-444,768
17:19:24.847,,-54,-285,666
17:19:24.857,,-85,-232,545
17:19:24.867,,-130,-187,423
17:19:24.877,,-102,-134,308
17:19:24.887,,-85,-135,209
17:19:24.897,,-140,-176,116
17:19:24.907,,-187,-167,66
17:19:24.917,,-255,-102,-37
17:19:24.927,,-311,-34,-176
17:19:24.937,,-348,25,-277
17:19:24.947,,-401,47,-350
17:19:24.957,,-434,32,-408
17:19:24.967,,-469,9,-524
17:19:24.977,,-486,-12,-612
17:19:24.987,,-470,-70,-689
17:19:24.997,,-398,-154,-732
17:19:25.007,,-330,-223,-787
17:19:25.017,,-294,-279,-876
17:19:25.027,,-276,-413,-948
17:19:25.037,,-262,-458,-973
17:19:25.047,,-228,-474,-1003
17:19:25.057,,-213,-505,-1042
17:19:25.067,,-178,-548,-1067
17:19:25.077,,-160,-583,-1064
17:19:25.087,,-160,-608,-1047
17:19:25.097,,-168,-607,-1019
17:19:25.107,,-199,-600,-993
17:19:25.117,,-235,-569,-961
17:19:25.127,,-270,-534,-912
17:19:25.137,,-320,-517,-875
17:19:25.147,,-357,-499,-808
17:19:25.157,,-365,-462,-768
17:19:25.167,,-353,-436,-724
17:19:25.177,,-344,-413,-651
17:19:25.187,,-319,-396,-566
17:19:25.197,,-292,-381,-496
17:19:25.207,,-293,-366,-429
17:19:25.217,,-325,-362,-376
17:19:25.227,,-352,-335,-332
17:19:25.237,,-349,-294,-270
17:19:25.247,,-304,-237,-202
17:19:25.257,,-259,-197,-127
17:19:25.267,,-210,-154,-38
17:19:25.277,,-177,-127,138
17:19:25.287,,-175,-138,226
17:19:25.297,,-126,-117,314
17:19:25.307,,-108,-109,357
17:19:25.317,,-94,-104,425
17:19:25.439,,90,-243,1403
17:19:25.440,,90,-243,1403
17:19:25.441,,90,-243,1403
17:19:25.443,,90,-243,1403
17:19:25.444,,90,-243,1517
17:19:25.445,,75,-365,1517
17:19:25.447,,75,-365,1517
17:19:25.448,,75,-365,1517
17:19:25.450,,75,-365,1517
17:19:25.451,,75,-365,1517
17:19:25.452,,75,-365,1517
17:19:25.454,,59,-522,1651
17:19:25.455,,59,-522,1651
17:19:25.457,,59,-522,1651
17:19:25.467,,68,-626,1836
17:19:25.477,,90,-706,1969
17:19:25.487,,142,-724,1998
17:19:25.497,,154,-735,1998
17:19:25.507,,157,-711,1998
17:19:25.517,,178,-740,1998
17:19:25.527,,161,-871,1998
17:19:25.537,,200,-1083,1998
17:19:25.547,,149,-1116,1998
17:19:25.557,,97,-1118,1998
17:19:25.567,,59,-1099,1998
17:19:25.577,,36,-1067,1998
17:19:25.587,,7,-1025,1998
17:19:25.597,,-13,-1016,1998
17:19:25.607,,-1,-1025,1998
17:19:25.617,,12,-1007,1998
17:19:25.627,,51,-921,1983
17:19:25.637,,-143,-1040,1970
17:19:25.647,,-52,-1016,1839
17:19:25.657,,-23,-1076,1955
17:19:25.667,,-65,-928,1854
17:19:25.677,,-84,-875,1729
17:19:25.687,,-60,-834,1694
17:19:25.697,,5,-816,1609
17:19:25.707,,28,-687,1621
17:19:25.717,,-80,-650,1482
17:19:25.727,,-113,-591,1366
17:19:25.737,,-169,-504,1331
17:19:25.747,,-155,-457,1263
17:19:25.757,,-205,-451,1298
17:19:25.767,,-232,-530,1195
17:19:25.777,,-190,-531,1144
17:19:25.787,,-112,-567,1031
17:19:25.797,,-119,-486,946
17:19:25.807,,-125,-542,871
17:19:25.817,,-83,-494,841
17:19:25.827,,-35,-445,827
17:19:25.837,,-68,-463,773
17:19:25.847,,-88,-448,734
17:19:25.857,,-111,-442,665
17:19:25.867,,-118,-405,606
17:19:25.877,,-123,-397,542
17:19:25.887,,-149,-346,512
17:19:25.897,,-169,-274,440
17:19:25.907,,-191,-238,356
17:19:25.917,,-205,-268,188
17:19:25.927,,-144,-254,111
17:19:25.937,,-130,-272,22
17:19:25.947,,-141,-316,-111
17:19:25.957,,-103,-304,-218
17:19:25.967,,-81,-301,-377
17:19:25.977,,-67,-273,-532
17:19:25.987,,-63,-253,-653
17:19:25.997,,-74,-245,-770
17:19:26.007,,-108,-271,-823
17:19:26.017,,-216,-271,-821
17:19:26.027,,-271,-264,-749
17:19:26.037,,-308,-294,-751
17:19:26.047,,-245,-336,-859
17:19:26.057,,-159,-357,-1000
17:19:26.067,,-109,-367,-1105
17:19:26.077,,-104,-379,-1162
17:19:26.087,,-91,-409,-1173
17:19:26.097,,-102,-435,-1150
17:19:26.107,,-116,-455,-1099
17:19:26.117,,-128,-476,-1025
17:19:26.127,,-161,-504,-982
17:19:26.137,,-212,-507,-970
17:19:26.147,,-225,-502,-1008
17:19:26.157,,-215,-508,-1077
17:19:26.167,,-177,-518,-1104
17:19:26.177,,-106,-514,-1064
17:19:26.187,,-108,-520,-1026
17:19:26.197,,-123,-508,-956
17:19:26.207,,-142,-487,-862
17:19:26.217,,-158,-475,-765
17:19:26.227,,-195,-445,-668
17:19:26.237,,-245,-412,-607
17:19:26.247,,-258,-391,-604
17:19:26.257,,-244,-366,-589
17:19:26.267,,-191,-342,-567
17:19:26.277,,-135,-318,-534
17:19:26.287,,-104,-276,-478
17:19:26.297,,-94,-230,-429
17:19:26.307,,-69,-162,-283
17:19:26.317,,-102,-132,-158
17:19:26.327,,-143,-209,-19
17:19:26.337,,-177,-213,158
17:19:26.347,,-154,-232,279
17:19:26.357,,-105,-191,341
17:19:26.367,,-76,-149,372
17:19:26.377,,-43,-115,391
17:19:26.387,,-37,-82,402
17:19:26.397,,-80,-80,473
17:19:26.407,,-111,-101,639
17:19:26.417,,-144,-121,854
17:19:26.427,,-156,-168,1223
17:19:26.437,,-91,-311,1325
17:19:26.447,,-60,-358,1315
17:19:26.457,,-48,-331,1280
17:19:26.467,,-44,-329,1253
17:19:26.477,,-20,-338,1292
17:19:26.487,,2,-384,1388
17:19:26.497,,-2,-445,1499
17:19:26.507,,-10,-542,1677
17:19:26.517,,-54,-646,1883
17:19:26.527,,-63,-750,1990
17:19:26.537,,-75,-777,1997
17:19:26.547,,-55,-768,1984
17:19:26.557,,6,-763,1997
17:19:26.567,,103,-834,1998
17:19:26.577,,93,-907,1998
17:19:26.587,,47,-982,1998
17:19:26.597,,-24,-1053,1998
17:19:26.607,,-91,-1160,1998
17:19:26.617,,-135,-1224,1998
17:19:26.627,,-134,-1225,1998
17:19:26.637,,-113,-1191,1998
17:19:26.647,,-83,-1121,1998
17:19:26.657,,-35,-1070,1998
17:19:26.667,,-5,-1023,1998
17:19:26.677,,-9,-992,1988
17:19:26.687,,-36,-929,1883
17:19:26.697,,-94,-899,1829
17:19:26.707,,-169,-855,1799
17:19:26.717,,-182,-721,1897
17:19:26.727,,-184,-773,1791
17:19:26.737,,-198,-872,1673
17:19:26.747,,-116,-762,1711
17:19:26.757,,-94,-776,1565
17:19:26.767,,-133,-648,1537
17:19:26.894,,-200,-414,816
17:19:26.895,,-200,-414,816
17:19:26.897,,-200,-414,816
17:19:26.898,,-200,-414,816
17:19:26.899,,-200,-414,816
17:19:26.901,,-190,-381,720
17:19:26.902,,-190,-381,720
17:19:26.903,,-190,-381,720
17:19:26.905,,-190,-381,720
17:19:26.906,,-190,-381,720
17:19:26.907,,-190,-381,720
17:19:26.909,,-190,-381,720
17:19:26.910,,-184,-330,566
17:19:26.912,,-184,-330,566
17:19:26.917,,-184,-330,566
17:19:26.927,,-164,-213,477
17:19:26.937,,-158,-151,429
17:19:26.947,,-173,-143,271
17:19:26.957,,-130,-146,174
17:19:26.967,,-102,-114,76
17:19:26.977,,-99,-61,-48
17:19:26.987,,-97,-22,-168
17:19:26.997,,-119,-3,-275
17:19:27.007,,-129,30,-412
17:19:27.017,,-135,113,-565
17:19:27.027,,-133,176,-746
17:19:27.037,,-145,173,-917
17:19:27.047,,-157,112,-1014
17:19:27.057,,-145,42,-1046
17:19:27.067,,-114,-33,-1067
17:19:27.077,,-65,-222,-1083
17:19:27.087,,-47,-289,-1111
17:19:27.097,,-41,-332,-1150
17:19:27.107,,-44,-361,-1190
17:19:27.117,,-42,-395,-1239
17:19:27.127,,-39,-416,-1281
17:19:27.137,,-58,-419,-1304
17:19:27.147,,-80,-420,-1311
17:19:27.157,,-106,-394,-1297
17:19:27.167,,-163,-389,-1281
17:19:27.177,,-201,-383,-1253
17:19:27.187,,-244,-353,-1226
17:19:27.197,,-275,-343,-1169
17:19:27.207,,-321,-303,-1130
17:19:27.217,,-339,-290,-1070
17:19:27.227,,-342,-278,-1011
17:19:27.237,,-337,-281,-969
17:19:27.247,,-331,-263,-914
17:19:27.257,,-328,-235,-846
17:19:27.267,,-316,-205,-770
17:19:27.277,,-311,-182,-690
17:19:27.287,,-310,-190,-594
17:19:27.297,,-330,-190,-517
17:19:27.307,,-319,-205,-450
17:19:27.317,,-278,-218,-399
17:19:27.327,,-237,-239,-232
17:19:27.337,,-148,-237,-106
17:19:27.347,,-117,-254,54
17:19:27.357,,-111,-234,221
17:19:27.367,,-135,-249,352
17:19:27.377,,-188,-288,503
17:19:27.387,,-185,-257,645
17:19:27.397,,-178,-279,686
17:19:27.407,,-155,-266,687
17:19:27.417,,-108,-218,742
17:19:27.427,,-53,-194,833
17:19:27.437,,-24,-234,933
17:19:27.447,,-58,-306,1067
17:19:27.457,,-56,-404,1257
17:19:27.467,,-21,-429,1343
17:19:27.477,,32,-409,1469
17:19:27.487,,61,-403,1577
17:19:27.497,,24,-432,1734
17:19:27.507,,7,-525,1878
17:19:27.517,,9,-682,1987
17:19:27.527,,20,-904,1998
17:19:27.537,,130,-1243,1998
17:19:27.547,,269,-1479,1998
17:19:27.557,,378,-1655,1998
17:19:27.567,,402,-1757,1998
17:19:27.577,,321,-1715,1998
17:19:27.587,,147,-1432,1998
17:19:27.597,,121,-1347,1998
17:19:27.607,,72,-1312,1998
17:19:27.617,,22,-1295,1998
17:19:27.627,,-3,-1269,1990
17:19:27.637,,-10,-1202,1966
17:19:27.647,,-19,-1148,1895
17:19:27.657,,0,-1101,1733
17:19:27.667,,-9,-1042,1629
17:19:27.677,,-66,-988,1524
17:19:27.687,,-115,-966,1449
17:19:27.697,,-129,-902,1372
17:19:27.707,,-114,-870,1287
17:19:27.717,,-108,-830,1128
17:19:27.727,,-122,-772,1099
17:19:27.737,,-96,-759,983
17:19:27.747,,-88,-655,884
17:19:27.757,,-145,-652,758
17:19:27.767,,-150,-592,706
17:19:27.777,,-162,-673,635
17:19:27.787,,-99,-753,589
17:19:27.797,,-96,-710,706
17:19:27.807,,-134,-714,661
17:19:27.817,,-129,-654,597
17:19:27.827,,-134,-675,464
17:19:27.837,,-136,-594,272
17:19:27.847,,-144,-580,273
17:19:27.857,,-199,-538,277
17:19:27.867,,-251,-532,351
17:19:27.877,,-293,-562,350
17:19:27.887,,-274,-551,342
17:19:27.897,,-273,-542,299
17:19:27.907,,-300,-494,287
17:19:27.917,,-335,-492,224
17:19:27.927,,-313,-493,200
17:19:27.937,,-326,-475,153
17:19:27.947,,-326,-459,87
17:19:27.957,,-301,-418,20
17:19:27.967,,-296,-396,-96
17:19:27.977,,-367,-344,-148
17:19:27.987,,-402,-331,-148
17:19:27.997,,-429,-321,-183
17:19:28.007,,-456,-334,-218
17:19:28.017,,-466,-309,-236
17:19:28.027,,-466,-249,-311
17:19:28.037,,-473,-215,-431
17:19:28.047,,-461,-221,-483
17:19:28.057,,-449,-197,-570
17:19:28.067,,-418,-224,-646
17:19:28.077,,-370,-270,-716
17:19:28.087,,-332,-305,-782
17:19:28.097,,-318,-334,-857
17:19:28.107,,-294,-344,-877
