Sensors' Acquisition [Hz]: Acc@104.0 
hh:mm:ss.ms, Annotation , AccX [mg], AccY, AccZ
12:44:27.476,,678,1277,145
12:44:27.486,,678,1309,128
12:44:27.496,,775,1348,67
12:44:27.506,,864,1448,-47
12:44:27.516,,1001,1576,-228
12:44:27.526,,1168,1641,-461
12:44:27.536,,1295,1604,-648
12:44:27.546,,1344,1503,-750
12:44:27.556,,1449,1478,-691
12:44:27.566,>Gesture,,,
12:44:27.567,,1624,1637,-712
12:44:27.576,,1818,1843,-952
12:44:27.586,,1970,1982,-1177
12:44:27.596,,1997,1997,-1481
12:44:27.606,,1997,1997,-1806
12:44:27.616,,1997,1997,-1991
12:44:27.626,,1997,1997,-1997
12:44:27.636,,1997,1997,-1997
12:44:27.646,,1997,1997,-1997
12:44:27.656,,1997,1997,-1997
12:44:27.666,,1997,1997,-1997
12:44:27.676,,1997,1997,-1977
12:44:27.686,,1915,1991,-1248
12:44:27.696,,1861,1869,-796
12:44:27.706,,1813,1716,-395
12:44:27.716,,1706,1615,-67
12:44:27.726,,1548,1559,187
12:44:27.736,,1384,1505,419
12:44:27.746,,1190,1484,542
12:44:27.756,,962,1430,633
12:44:27.766,,752,1410,654
12:44:27.776,,551,1423,576
12:44:27.786,,384,1395,470
12:44:27.796,,262,1325,371
12:44:27.806,,171,1267,456
12:44:27.816,,-16,1172,525
12:44:27.826,,-116,1111,518
12:44:27.836,,-233,1118,424
12:44:27.846,,-335,1121,273
12:44:27.856,,-428,1107,73
12:44:27.866,,-533,1060,-78
12:44:27.876,,-614,1002,-143
12:44:27.886,,-633,894,-167
12:44:27.896,,-598,822,-56
12:44:27.906,,-535,794,1
12:44:27.916,,-540,800,-45
12:44:27.926,,-530,796,-156
12:44:27.936,,-494,785,-383
12:44:27.946,,-453,780,-433
12:44:27.956,,-471,789,-405
12:44:27.966,,-480,799,-286
12:44:27.976,,-523,830,-134
12:44:27.986,,-571,904,-44
12:44:27.996,,-691,1057,-19
12:44:28.006,,-890,1249,-83
12:44:28.016,,-1182,1466,-186
12:44:28.026,,-1661,1730,-354
12:44:28.036,,-1997,1958,-554
12:44:28.046,,-1998,1997,-751
12:44:28.056,,-1998,1997,-872
12:44:28.066,,-1998,1997,-925
12:44:28.076,,-1998,1997,-673
12:44:28.086,,-1998,1948,-439
12:44:28.096,,-1998,1890,-359
12:44:28.106,,-1998,1831,-439
12:44:28.116,,-1998,1738,-565
12:44:28.126,,-1998,1614,-702
12:44:28.136,,-1998,1469,-764
12:44:28.146,,-1950,1326,-736
12:44:28.156,,-1800,1209,-578
12:44:28.166,,-1698,1094,-290
12:44:28.176,,-1639,975,-81
12:44:28.186,,-1604,871,13
12:44:28.196,,-1489,790,111
12:44:28.206,,-1383,812,96
12:44:28.216,,-1232,843,105
12:44:28.226,,-1039,893,124
12:44:28.236,,-795,958,169
12:44:28.246,,-574,1049,205
12:44:28.256,,-349,1090,171
12:44:28.266,,-129,1077,122
12:44:28.276,,86,1075,75
12:44:28.286,,202,1066,17
12:44:28.296,,262,1050,-65
12:44:28.306,,320,1058,-141
12:44:28.316,,350,1077,-132
12:44:28.326,,386,1048,-45
12:44:28.336,,428,1061,-86
12:44:28.346,,409,1056,-90
12:44:28.356,,416,998,-149
12:44:28.366,,460,1029,-215
12:44:28.376,,491,1039,-274
12:44:28.386,,503,993,-291
12:44:28.396,,503,963,-236
12:44:28.406,,539,963,-193
12:44:28.416,,576,995,-198
12:44:28.426,,609,1013,-298
12:44:28.436,,594,1000,-396
12:44:28.446,,537,994,-435
12:44:28.456,,555,950,-494
12:44:28.466,,685,1027,-445
12:44:28.476,,843,1068,-552
12:44:28.486,,1045,1076,-583
12:44:28.496,,1353,1210,-610
12:44:28.506,,1590,1316,-741
12:44:28.516,,1834,1411,-920
12:44:28.526,,1993,1512,-1141
12:44:28.536,,1997,1637,-1404
12:44:28.546,,1997,1730,-1712
12:44:28.556,,1997,1825,-1955
12:44:28.566,,1997,1904,-1997
12:44:28.576,,1997,1965,-1997
12:44:28.586,,1997,1994,-1997
12:44:28.596,,1958,1979,-1997
12:44:28.606,,1898,1959,-1997
12:44:28.616,,1881,1967,-1997
12:44:28.626,,1894,1901,-1979
12:44:28.636,,1896,1796,-1656
12:44:28.646,,1916,1728,-1263
12:44:28.656,,1904,1676,-908
12:44:28.666,,1836,1606,-642
12:44:28.676,,1720,1537,-434
12:44:28.686,,1546,1518,-260
12:44:28.696,,1362,1518,-127
12:44:28.706,,1250,1502,168
12:44:28.716,,975,1502,249
12:44:28.726,,825,1497,325
12:44:28.736,,672,1488,386
12:44:28.746,,532,1485,452
12:44:28.756,,447,1517,531
12:44:28.766,,395,1413,587
12:44:28.776,,305,1477,582
12:44:28.786,,193,1478,439
12:44:28.796,,61,1520,336
12:44:28.806,,-76,1501,232
12:44:28.816,,-215,1485,166
12:44:28.826,,-332,1434,84
12:44:28.836,,-457,1314,-60
12:44:28.846,,-444,1277,-140
12:44:28.856,,-442,1300,-215
12:44:28.866,,-503,1315,-317
12:44:28.876,,-597,1290,-393
12:44:29.027,,-1998,1979,-712
12:44:29.028,,-1998,1979,-712
12:44:29.029,,-1998,1979,-712
12:44:29.031,,-1998,1979,-788
12:44:29.032,,-1998,1997,-788
12:44:29.034,,-1998,1997,-788
12:44:29.035,,-1998,1997,-788
12:44:29.036,,-1998,1997,-788
12:44:29.038,,-1998,1997,-788
12:44:29.039,,-1998,1997,-788
12:44:29.040,,-1998,1997,-830
12:44:29.042,,-1998,1997,-830
12:44:29.043,,-1998,1997,-830
12:44:29.044,,-1998,1997,-830
12:44:29.046,,-1998,1997,-830
12:44:29.047,,-1998,1997,-830
12:44:29.049,,-1998,1997,-830
12:44:29.056,,-1998,1997,-896
12:44:29.066,,-1847,1994,-903
12:44:29.076,,-1568,1887,-810
12:44:29.086,,-1445,1727,-736
12:44:29.096,,-1657,1453,-706
12:44:29.106,,-1777,1332,-500
12:44:29.116,,-1854,1254,-256
12:44:29.126,,-1903,1212,-100
12:44:29.136,,-1891,1176,10
12:44:29.146,,-1801,1180,128
12:44:29.156,,-1631,1232,234
12:44:29.166,,-1393,1342,330
12:44:29.176,,-1116,1466,401
12:44:29.186,,-838,1555,360
12:44:29.196,,-561,1570,246
12:44:29.206,,-308,1549,156
12:44:29.216,,-46,1514,104
12:44:29.226,,289,1405,6
12:44:29.236,,379,1373,-42
12:44:29.246,,419,1345,-31
12:44:29.256,,398,1306,64
12:44:29.266,,430,1260,133
12:44:29.276,,470,1194,121
12:44:29.286,,469,1090,67
12:44:29.296,,428,1047,4
12:44:29.306,,424,1041,-36
12:44:29.316,,451,1023,-51
12:44:29.326,,455,1062,-39
12:44:29.336,,536,1091,-70
12:44:29.346,,695,1103,-174
12:44:29.356,,919,1131,-224
12:44:29.366,,972,1070,-223
12:44:29.376,,1014,1019,-189
12:44:29.386,,1111,1046,-156
12:44:29.396,,1296,1123,-167
12:44:29.406,,1570,1198,-367
12:44:29.416,,1917,1313,-608
12:44:29.426,,1997,1429,-840
12:44:29.436,,1997,1503,-1082
12:44:29.446,,1997,1629,-1374
12:44:29.456,,1997,1733,-1502
12:44:29.466,,1997,1789,-1809
12:44:29.476,,1997,1830,-1997
12:44:29.486,,1997,1846,-1997
12:44:29.496,,1997,1757,-1997
12:44:29.506,,1997,1615,-1987
12:44:29.516,,1997,1420,-1745
12:44:29.526,,1997,1212,-1366
12:44:29.536,,1997,1112,-969
12:44:29.546,,1997,1028,-634
12:44:29.556,,1997,958,-381
12:44:29.566,,1959,977,-226
12:44:29.576,,1762,1039,-170
12:44:29.586,,1591,1054,-225
12:44:29.596,,1404,1081,-312
12:44:29.606,,1107,1112,-361
12:44:29.616,,978,1119,-403
12:44:29.626,,814,1121,-341
12:44:29.636,,741,1037,-210
12:44:29.646,,641,977,-99
12:44:29.656,,507,987,33
12:44:29.666,,239,980,200
12:44:29.676,,69,818,249
12:44:29.686,,68,703,135
12:44:29.696,,69,740,59
12:44:29.706,,6,789,21
12:44:29.716,,-69,845,-18
12:44:29.726,,-212,849,-53
12:44:29.736,,-428,681,-24
12:44:29.746,,-479,602,15
12:44:29.756,,-481,554,11
12:44:29.766,,-385,492,-38
12:44:29.776,,-228,533,-146
12:44:29.786,,-233,628,-187
12:44:29.796,,-244,648,-293
12:44:29.806,,-341,656,-349
12:44:29.816,,-401,631,-415
12:44:29.826,,-443,675,-340
12:44:29.836,,-563,744,-123
12:44:29.846,,-721,807,121
12:44:29.856,,-879,967,244
12:44:29.866,,-1537,1336,-80
12:44:29.876,,-1925,1569,-366
12:44:29.886,,-1998,1742,-600
12:44:29.896,,-1998,1840,-779
12:44:29.906,,-1998,1901,-868
12:44:29.916,,-1998,1885,-884
12:44:29.926,,-1998,1833,-890
12:44:29.936,,-1998,1790,-786
12:44:29.946,,-1998,1685,-548
12:44:29.956,,-1998,1571,-379
12:44:29.966,,-1998,1487,-417
12:44:29.976,,-1998,1363,-518
12:44:29.986,,-1998,1224,-604
12:44:29.996,,-1998,962,-464
12:44:30.006,,-1998,849,-308
12:44:30.016,,-1947,804,-205
12:44:30.026,,-1748,820,-47
12:44:30.036,,-1572,849,48
12:44:30.046,,-1436,879,70
12:44:30.056,,-1336,883,93
12:44:30.066,,-1221,890,105
12:44:30.076,,-1076,970,64
12:44:30.086,,-927,1044,15
12:44:30.096,,-802,1045,-31
12:44:30.106,,-579,1087,-1
12:44:30.116,,-258,1198,-21
12:44:30.126,,305,1328,-32
12:44:30.136,,491,1312,-45
12:44:30.146,,593,1249,-81
12:44:30.156,,584,1164,-168
12:44:30.166,,512,1131,-263
12:44:30.176,,475,1098,-300
12:44:30.186,,478,1062,-339
12:44:30.196,,514,1073,-380
12:44:30.206,,595,1094,-387
12:44:30.216,,655,1051,-377
12:44:30.226,,691,1034,-351
12:44:30.236,,690,961,-302
12:44:30.246,,629,717,-47
12:44:30.256,,599,737,-5
12:44:30.266,,680,776,-5
12:44:30.276,,884,848,-116
12:44:30.286,,1159,922,-257
12:44:30.296,,1490,1002,-357
12:44:30.306,,1840,1024,-423
12:44:30.316,,1996,976,-446
12:44:30.326,,1997,927,-404
12:44:30.473,,1996,996,57
12:44:30.475,,1996,996,57
12:44:30.476,,1996,996,57
12:44:30.477,,1996,996,57
12:44:30.479,,1902,969,151
12:44:30.480,,1902,969,151
12:44:30.481,,1902,969,151
12:44:30.483,,1902,969,151
12:44:30.484,,1902,969,151
12:44:30.485,,1902,969,151
12:44:30.487,,1902,969,151
12:44:30.488,,1782,1039,105
12:44:30.490,,1782,1039,105
12:44:30.491,,1782,1039,105
12:44:30.492,,1782,1039,105
12:44:30.494,,1782,1039,105
12:44:30.496,,1782,1039,105
12:44:30.506,,1446,1134,-5
12:44:30.516,,1159,1141,27
12:44:30.526,,919,1100,101
12:44:30.536,,788,1060,205
12:44:30.546,,778,1003,364
12:44:30.556,,791,991,354
12:44:30.566,,775,1034,299
12:44:30.576,,750,1091,251
12:44:30.586,,702,1184,228
12:44:30.596,,608,1321,201
12:44:30.606,,466,1429,238
12:44:30.616,,301,1393,322
12:44:30.626,,171,1396,358
12:44:30.636,,41,1367,176
12:44:30.646,,82,1403,-1
12:44:30.656,,110,1421,-89
12:44:30.666,,237,1456,-246
12:44:30.676,,371,1636,-485
12:44:30.686,,227,1773,-683
12:44:30.696,,-136,1917,-960
12:44:30.706,,-613,1903,-1139
12:44:30.716,,-864,1659,-1206
12:44:30.726,,-997,1407,-1029
12:44:30.736,,-941,1255,-589
12:44:30.746,,-827,1186,-221
12:44:30.756,,-879,1123,389
12:44:30.766,,-1140,1163,382
12:44:30.776,,-1487,1330,73
12:44:30.786,,-1899,1544,-209
12:44:30.796,,-1998,1792,-416
12:44:30.806,,-1998,1977,-551
12:44:30.816,,-1998,1997,-640
12:44:30.826,,-1998,1997,-613
12:44:30.836,,-1998,1997,-576
12:44:30.846,,-1998,1997,-700
12:44:30.856,,-1998,1997,-870
12:44:30.866,,-1998,1997,-783
12:44:30.876,,-1998,1997,-668
12:44:30.886,,-1998,1944,-580
12:44:30.896,,-1998,1715,-533
12:44:30.906,,-1998,1610,-526
12:44:30.916,,-1998,1527,-457
12:44:30.926,,-1961,1458,-366
12:44:30.936,,-1792,1369,-267
12:44:30.946,,-1651,1298,-123
12:44:30.956,,-1545,1254,16
12:44:30.966,,-1438,1245,57
12:44:30.976,,-1276,1229,62
12:44:30.986,,-1143,1210,141
12:44:30.996,,-1023,1207,168
12:44:31.006,,-893,1224,148
12:44:31.016,,-539,1298,1
12:44:31.026,,-315,1346,-107
12:44:31.036,,-104,1377,-206
12:44:31.046,,116,1382,-256
12:44:31.056,,341,1392,-285
12:44:31.066,,492,1347,-258
12:44:31.076,,524,1204,-212
12:44:31.086,,479,1055,-93
12:44:31.096,,418,921,38
12:44:31.106,,387,812,96
12:44:31.116,,366,776,66
12:44:31.126,,356,799,-18
12:44:31.136,,418,810,-144
12:44:31.146,,616,890,-175
12:44:31.156,,700,848,-186
12:44:31.166,,708,806,-182
12:44:31.176,,689,755,-86
12:44:31.186,,665,684,126
12:44:31.196,,626,635,254
12:44:31.206,,669,580,298
12:44:31.216,,723,587,270
12:44:31.226,,933,733,102
12:44:31.236,,1303,929,-124
12:44:31.246,,1731,983,-393
12:44:31.256,,1989,954,-619
12:44:31.266,,1997,847,-737
12:44:31.276,,1997,804,-888
12:44:31.286,,1997,758,-865
12:44:31.296,,1997,849,-963
12:44:31.306,,1997,847,-1118
12:44:31.316,,1997,931,-1406
12:44:31.326,,1997,1054,-1719
12:44:31.336,,1997,1192,-1976
12:44:31.346,,1997,1218,-1997
12:44:31.356,,1997,1241,-1997
12:44:31.366,,1997,1182,-1997
12:44:31.376,,1997,1080,-1918
12:44:31.386,,1997,1013,-1551
12:44:31.396,,1997,971,-1154
12:44:31.406,,1997,949,-333
12:44:31.416,,1989,917,-31
12:44:31.426,,1861,930,175
12:44:31.436,,1732,976,251
12:44:31.446,,1557,1023,265
12:44:31.456,,1320,1086,293
12:44:31.466,,1117,1112,333
12:44:31.476,,900,1140,323
12:44:31.486,,678,1152,273
12:44:31.496,,476,1150,281
12:44:31.506,,328,1104,431
12:44:31.516,,250,997,587
12:44:31.526,,280,948,772
12:44:31.536,,302,1017,685
12:44:31.546,,315,1142,464
12:44:31.556,,348,1291,177
12:44:31.566,,276,1417,-65
12:44:31.576,,102,1498,-249
12:44:31.586,,-100,1553,-323
12:44:31.596,,-267,1573,-352
12:44:31.606,,-433,1559,-447
12:44:31.616,,-624,1532,-553
12:44:31.626,,-793,1476,-645
12:44:31.636,,-937,1424,-883
12:44:31.646,,-1029,1398,-1214
12:44:31.656,,-1038,1008,-1280
12:44:31.666,,-979,742,-1021
12:44:31.676,,-880,566,-675
12:44:31.686,,-805,487,-390
12:44:31.696,,-788,384,-252
12:44:31.706,,-891,333,-103
12:44:31.716,,-1196,358,97
12:44:31.726,,-1680,422,270
12:44:31.736,,-1998,535,347
12:44:31.746,,-1998,666,337
12:44:31.756,,-1998,739,249
12:44:31.766,,-1998,802,204
12:44:31.776,,-1998,874,51
12:44:31.786,,-1998,1001,-302
12:44:31.939,,-1247,791,-15
12:44:31.941,,-1247,791,-15
12:44:31.942,,-1247,791,-15
12:44:31.943,,-1247,872,-13
12:44:31.945,,-1060,872,-13
12:44:31.946,,-1060,872,-13
12:44:31.948,,-1060,872,-13
12:44:31.949,,-1060,872,-13
12:44:31.950,,-1060,872,-13
12:44:31.952,,-1060,872,-13
12:44:31.953,,-869,949,-18
12:44:31.954,,-869,949,-18
12:44:31.956,,-869,949,-18
12:44:31.957,,-869,949,-18
12:44:31.958,,-869,949,-18
12:44:31.960,,-869,949,-18
12:44:31.961,,-869,949,-18
12:44:31.966,,-695,953,-76
12:44:31.976,,-523,946,-79
12:44:31.986,,-376,947,-23
12:44:31.996,,-278,918,56
12:44:32.006,,-194,908,121
12:44:32.016,,-86,916,192
12:44:32.026,,9,922,256
12:44:32.036,,87,940,238
12:44:32.046,,200,969,119
12:44:32.056,,298,1024,45
12:44:32.066,,398,1059,-58
12:44:32.076,,462,1069,-185
12:44:32.086,,485,1069,-227
12:44:32.096,,501,1015,-68
12:44:32.106,,458,924,139
12:44:32.116,,419,875,203
12:44:32.126,,411,898,248
12:44:32.136,,468,972,256
12:44:32.146,,578,1099,179
12:44:32.156,,843,1284,9
12:44:32.166,,1269,1390,-428
12:44:32.176,,1994,1475,-597
12:44:32.186,,1997,1433,-662
12:44:32.196,,1997,1366,-620
12:44:32.206,,1997,1311,-656
12:44:32.216,,1997,1279,-815
12:44:32.226,,1997,1286,-1041
12:44:32.236,,1997,1330,-1343
12:44:32.246,,1997,1489,-1712
12:44:32.256,,1997,1511,-1985
12:44:32.266,,1997,1598,-1997
12:44:32.276,,1997,1706,-1997
12:44:32.286,,1997,1605,-1997
12:44:32.296,,1997,1538,-1898
12:44:32.306,,1997,1382,-1483
12:44:32.316,,1997,1305,-1044
12:44:32.326,,1997,1242,-643
12:44:32.336,,1991,1197,-264
12:44:32.346,,1955,1160,0
12:44:32.356,,1844,1157,221
12:44:32.366,,1642,1164,407
12:44:32.376,,1436,1189,511
12:44:32.386,,1279,1255,518
12:44:32.396,,1095,1308,414
12:44:32.406,,942,1334,320
12:44:32.416,,837,1321,297
12:44:32.426,,776,1345,294
12:44:32.436,,652,1340,313
12:44:32.446,,577,1371,316
12:44:32.456,,474,1424,303
12:44:32.466,,381,1497,216
12:44:32.476,,322,1571,147
12:44:32.486,,286,1679,55
12:44:32.496,,234,1815,-45
12:44:32.506,,103,1882,-149
12:44:32.516,,-51,1919,-249
12:44:32.526,,-268,1937,-404
12:44:32.536,,-457,1903,-513
12:44:32.546,,-556,1757,-585
12:44:32.556,,-594,1577,-625
12:44:32.566,,-485,1530,-538
12:44:32.576,,-439,1573,-349
12:44:32.586,,-546,1616,-62
12:44:32.596,,-672,1682,177
12:44:32.606,,-893,1768,344
12:44:32.616,,-1252,1905,360
12:44:32.626,,-1777,1997,307
12:44:32.636,,-1998,1997,231
12:44:32.646,,-1998,1997,178
12:44:32.656,,-1998,1997,-27
12:44:32.666,,-1998,1997,-355
12:44:32.676,,-1998,1997,-583
12:44:32.686,,-1998,1996,-639
12:44:32.696,,-1998,1977,-554
12:44:32.706,,-1998,1901,-683
12:44:32.716,,-1972,1788,-694
12:44:32.726,,-1787,1663,-573
12:44:32.736,,-1713,1548,-557
12:44:32.746,,-1720,1417,-444
12:44:32.756,,-1780,1266,-337
12:44:32.766,,-1851,1146,-240
12:44:32.776,,-1944,1053,-144
12:44:32.786,,-1958,994,-14
12:44:32.796,,-1892,932,233
12:44:32.806,,-1755,877,465
12:44:32.816,,-1318,780,675
12:44:32.826,,-1096,723,738
12:44:32.836,,-864,709,731
12:44:32.846,,-618,753,784
12:44:32.856,,-382,828,689
12:44:32.866,,-161,930,593
12:44:32.876,,34,990,500
12:44:32.886,,159,1017,356
12:44:32.896,,248,1040,260
12:44:32.906,,317,1041,139
12:44:32.916,,416,1056,-5
12:44:32.926,,464,1059,-221
12:44:32.936,,435,1090,-640
12:44:32.946,,279,1159,-873
12:44:32.956,,189,1242,-1135
12:44:32.966,,122,1276,-1289
12:44:32.976,,69,1255,-1347
12:44:32.986,,86,1242,-1336
12:44:32.996,,111,1182,-1283
12:44:33.006,,73,1079,-1071
12:44:33.016,,36,972,-859
12:44:33.026,,-35,918,-687
12:44:33.036,,-127,847,-540
12:44:33.046,,-184,781,-454
12:44:33.056,,-218,805,-399
12:44:33.066,,-221,835,92
12:44:33.076,,-265,935,454
12:44:33.086,,-200,1070,835
12:44:33.096,,219,1211,1014
12:44:33.106,,887,1309,1082
12:44:33.116,,1632,1339,1025
12:44:33.126,,1997,1383,744
12:44:33.136,,1997,1375,467
12:44:33.146,,1997,1324,293
12:44:33.156,,1997,1297,-25
12:44:33.166,,1997,1373,-432
12:44:33.176,,1997,1451,-872
12:44:33.186,,1997,1664,-1457
12:44:33.196,,1997,1791,-1997
12:44:33.206,,1997,1810,-1997
12:44:33.216,,1997,1769,-1997
12:44:33.226,,1997,1651,-1997
12:44:33.236,,1997,1520,-1877
12:44:33.246,,1997,1403,-1663
12:44:33.393,,-979,825,137
12:44:33.394,,-979,825,137
12:44:33.396,,-979,825,137
12:44:33.397,,-979,825,137
12:44:33.398,,-979,825,137
12:44:33.400,,-979,825,-50
12:44:33.401,,-1148,829,-50
12:44:33.402,,-1148,829,-50
12:44:33.404,,-1148,829,-50
12:44:33.405,,-1148,829,-50
12:44:33.407,,-1148,829,-50
12:44:33.408,,-1148,829,-50
12:44:33.409,,-1320,848,-180
12:44:33.411,,-1320,848,-180
12:44:33.412,,-1320,848,-180
12:44:33.413,,-1320,848,-180
12:44:33.416,,-1320,848,-180
12:44:33.426,,-1461,858,-288
12:44:33.436,,-1633,917,-467
12:44:33.446,,-1828,1016,-744
12:44:33.456,,-1998,1086,-1552
12:44:33.466,,-1998,1123,-1949
12:44:33.476,,-1998,1137,-1997
12:44:33.486,,-1978,1149,-1997
12:44:33.496,,-1783,1197,-1904
12:44:33.506,,-1524,1189,-1622
12:44:33.516,,-1307,1183,-1386
12:44:33.526,,-1099,1209,-1204
12:44:33.536,,-917,1205,-1121
12:44:33.546,,-773,1262,-1007
12:44:33.556,,-657,1414,-905
12:44:33.566,,-552,1561,-821
12:44:33.576,,-455,1654,-604
12:44:33.586,,-266,1977,60
12:44:33.596,,-106,1997,378
12:44:33.606,,98,1997,650
12:44:33.616,,320,1997,864
12:44:33.626,,560,1997,1161
12:44:33.636,,704,1997,1457
12:44:33.646,,641,1997,1824
12:44:33.656,,493,1951,1998
12:44:33.666,,350,1670,1998
12:44:33.676,,297,1516,1998
12:44:33.686,,267,1591,1998
12:44:33.696,,245,1764,1998
12:44:33.706,,266,1973,1998
12:44:33.716,,668,1924,1998
12:44:33.726,,960,1737,1998
12:44:33.736,,1104,1323,1998
12:44:33.746,,1180,1068,1998
12:44:33.756,,1175,1005,1998
12:44:33.766,,1057,1100,1998
12:44:33.776,,893,1168,1998
12:44:33.786,,746,1148,1998
12:44:33.796,,656,1048,1998
12:44:33.806,,630,926,1998
12:44:33.816,,588,899,1998
12:44:33.826,,544,999,1998
12:44:33.836,,490,1294,1998
12:44:33.846,,418,1341,1998
12:44:33.856,,357,1332,1998
12:44:33.866,,278,1341,1998
12:44:33.876,,210,1293,1998
12:44:33.886,,170,1204,1998
12:44:33.896,,190,1105,1998
12:44:33.906,,143,931,1998
12:44:33.916,,151,847,1998
12:44:33.926,,228,924,1998
12:44:33.936,,238,1093,1998
12:44:33.946,,217,1238,1998
12:44:33.956,,155,1390,1998
12:44:33.966,,45,1637,1816
12:44:33.976,,34,1780,1639
12:44:33.986,,-27,1858,1552
12:44:33.996,,-32,1881,1408
12:44:34.006,,-74,1938,1349
12:44:34.016,,-20,1943,1469
12:44:34.026,,85,1973,1565
12:44:34.036,,59,1997,1693
12:44:34.046,,-2,1997,1655
12:44:34.056,,-130,1997,1409
12:44:34.066,,-393,1997,1031
12:44:34.076,,-710,1997,509
12:44:34.086,,-1073,1997,-45
12:44:34.096,,-1264,1997,-656
12:44:34.106,,-1211,1997,-897
12:44:34.116,,-1064,1953,-979
12:44:34.126,,-936,1829,-1016
12:44:34.136,,-841,1714,-880
12:44:34.146,,-805,1640,-782
12:44:34.156,,-849,1552,-729
12:44:34.166,,-961,1513,-685
12:44:34.176,,-1117,1464,-688
12:44:34.186,,-1246,1443,-704
12:44:34.196,,-1284,1429,-803
12:44:34.206,,-1164,1496,-1004
12:44:34.216,,-940,1637,-1157
12:44:34.226,,-110,1991,-1469
12:44:34.236,,514,1997,-1619
12:44:34.246,,1158,1997,-1908
12:44:34.256,,1582,1997,-1997
12:44:34.266,,1532,1997,-1997
12:44:34.276,,1136,1997,-1997
12:44:34.286,,667,1997,-1997
12:44:34.296,,313,1997,-1997
12:44:34.306,,116,1997,-1997
12:44:34.316,,15,1997,-1997
12:44:34.326,,-87,1983,-1996
12:44:34.336,,-272,1841,-1673
12:44:34.346,,-518,1721,-1176
12:44:34.356,,-930,1500,-581
12:44:34.366,,-1040,1419,-423
12:44:34.376,,-1031,1383,-365
12:44:34.386,,-984,1268,-314
12:44:34.396,,-910,1166,-338
12:44:34.406,,-812,1088,-377
12:44:34.416,,-752,980,-381
12:44:34.426,,-681,956,-382
12:44:34.436,,-622,972,-404
12:44:34.446,,-543,1002,-378
12:44:34.456,,-467,1006,-266
12:44:34.466,,-416,1010,-150
12:44:34.476,,-362,1018,-7
12:44:34.486,,-341,1152,-14
12:44:34.496,,-339,1193,58
12:44:34.506,,-354,1324,170
12:44:34.516,,-343,1507,311
12:44:34.526,,-358,1598,516
12:44:34.536,,-388,1640,740
12:44:34.546,,-402,1794,902
12:44:34.556,,-376,1961,958
12:44:34.566,,-335,1997,960
12:44:34.576,,-368,1997,1018
12:44:34.586,,-443,1997,1027
12:44:34.596,,-530,1997,1396
12:44:34.606,,-645,1997,1998
12:44:34.616,,-553,1997,1998
12:44:34.626,,-285,1997,1998
12:44:34.636,,30,1997,1998
12:44:34.646,,329,1997,1998
12:44:34.656,,555,1944,1998
12:44:34.666,,717,1867,1998
12:44:34.676,,788,1902,1998
12:44:34.823,,199,1611,1919
12:44:34.824,,199,1611,1919
12:44:34.825,,199,1611,1919
12:44:34.827,,199,1611,1919
12:44:34.828,,199,1611,1997
12:44:34.829,,133,1380,1997
12:44:34.831,,133,1380,1997
12:44:34.832,,133,1380,1997
12:44:34.834,,133,1380,1997
12:44:34.835,,133,1380,1997
12:44:34.836,,133,1380,1997
12:44:34.838,,146,1260,1998
12:44:34.839,,146,1260,1998
12:44:34.840,,146,1260,1998
12:44:34.842,,146,1260,1998
12:44:34.843,,146,1260,1998
12:44:34.846,,146,1260,1998
12:44:34.856,,166,1355,1998
12:44:34.866,,89,1866,1998
12:44:34.876,,124,1997,1946
12:44:34.886,,152,1997,1528
12:44:34.896,,130,1997,1077
12:44:34.906,,-101,1997,822
12:44:34.916,,-388,1955,996
12:44:34.926,,-442,1736,1055
12:44:34.936,,-490,1669,1165
12:44:34.946,,-467,1614,1409
12:44:34.956,,-294,1693,1531
12:44:34.966,,-72,1935,1639
12:44:34.976,,0,1997,1434
12:44:34.986,,-159,1997,906
12:44:34.996,,-916,1997,-123
12:44:35.006,,-1246,1997,-397
12:44:35.016,,-1420,1993,-554
12:44:35.026,,-1339,1847,-575
12:44:35.036,,-1159,1734,-619
12:44:35.046,,-989,1759,-804
12:44:35.056,,-894,1713,-947
12:44:35.066,,-887,1617,-962
12:44:35.076,,-858,1548,-893
12:44:35.086,,-767,1546,-849
12:44:35.096,,-660,1627,-845
12:44:35.106,,-533,1731,-836
12:44:35.116,,-431,1889,-960
12:44:35.126,,-281,1997,-1222
12:44:35.136,,-231,1997,-1538
12:44:35.146,,-196,1997,-1927
12:44:35.156,,-180,1997,-1997
12:44:35.166,,-343,1997,-1997
12:44:35.176,,-582,1997,-1997
12:44:35.186,,-696,1997,-1997
12:44:35.196,,-522,1997,-1997
12:44:35.206,,-198,1997,-1997
12:44:35.216,,-4,1997,-1952
12:44:35.226,,129,1997,-1372
12:44:35.236,,152,1997,-775
12:44:35.246,,39,1898,-381
12:44:35.256,,-284,1601,-496
12:44:35.266,,-506,1490,-585
12:44:35.276,,-686,1402,-577
12:44:35.286,,-744,1310,-514
12:44:35.296,,-716,1245,-445
12:44:35.306,,-665,1186,-383
12:44:35.316,,-626,1131,-291
12:44:35.326,,-607,1132,-148
12:44:35.336,,-595,1146,-71
12:44:35.346,,-584,1213,0
12:44:35.356,,-612,1203,9
12:44:35.366,,-628,1208,60
12:44:35.376,,-655,1507,385
12:44:35.386,,-620,1524,536
12:44:35.396,,-653,1528,595
12:44:35.406,,-663,1620,693
12:44:35.416,,-685,1709,784
12:44:35.426,,-709,1943,873
12:44:35.436,,-673,1997,866
12:44:35.446,,-530,1997,929
12:44:35.456,,-358,1997,1066
12:44:35.466,,-248,1997,1238
12:44:35.475,,-257,1997,1613
12:44:35.486,,-325,1997,1962
12:44:35.496,,-415,1997,1998
12:44:35.505,,-198,1811,1998
12:44:35.516,,89,1741,1998
12:44:35.526,,402,1709,1998
12:44:35.535,,605,1539,1998
12:44:35.546,,626,1408,1998
12:44:35.556,,608,1405,1998
12:44:35.565,,659,1492,1998
12:44:35.576,,741,1599,1998
12:44:35.586,,885,1653,1998
12:44:35.595,,1022,1525,1998
12:44:35.606,,1110,1296,1998
12:44:35.616,,1131,1112,1998
12:44:35.625,,1064,1056,1998
12:44:35.636,,856,1077,1998
12:44:35.645,,712,1069,1998
12:44:35.655,,585,1082,1998
12:44:35.666,,513,1138,1998
12:44:35.675,,506,1156,1998
12:44:35.685,,573,1183,1998
12:44:35.696,,597,1230,1998
12:44:35.705,,515,1262,1998
12:44:35.715,,387,1314,1998
12:44:35.726,,245,1454,1998
12:44:35.735,,126,1682,1998
12:44:35.745,,51,1802,1998
12:44:35.756,,94,1951,1998
12:44:35.765,,242,1997,1573
12:44:35.775,,200,1997,1290
12:44:35.785,,74,1960,1029
12:44:35.795,,-40,1859,771
12:44:35.805,,-230,1716,707
12:44:35.815,,-361,1553,836
12:44:35.825,,-253,1406,904
12:44:35.835,,-131,1447,787
12:44:35.845,,-151,1655,593
12:44:35.855,,-266,1773,363
12:44:35.865,,-454,1728,148
12:44:35.875,,-635,1603,-50
12:44:35.885,,-880,1543,-397
12:44:35.895,,-803,1315,-477
12:44:35.905,,-610,1238,-619
12:44:35.915,,-543,1202,-803
12:44:35.925,,-561,1146,-879
12:44:35.935,,-537,1051,-858
12:44:35.945,,-456,980,-798
12:44:35.955,,-343,914,-625
12:44:35.965,,-238,910,-574
12:44:35.975,,-201,1013,-644
12:44:35.985,,-199,1047,-625
12:44:35.995,,-195,992,-577
12:44:36.005,,-217,1030,-580
12:44:36.015,,-222,1148,-784
12:44:36.025,,-193,1202,-833
12:44:36.035,,-165,1366,-842
12:44:36.045,,-78,1656,-865
12:44:36.055,,98,1969,-933
12:44:36.065,,273,1997,-1073
12:44:36.075,,347,1997,-1420
12:44:36.085,,286,1997,-1909
12:44:36.095,,74,1997,-1997
12:44:36.105,,-156,1997,-1997
12:44:36.115,,-296,1997,-1997
12:44:36.262,,-1998,514,422
12:44:36.263,,-1998,514,422
12:44:36.264,,-1998,514,422
12:44:36.266,,-1998,514,453
12:44:36.267,,-1997,426,453
12:44:36.269,,-1997,426,453
12:44:36.270,,-1997,426,453
12:44:36.271,,-1997,426,453
12:44:36.273,,-1997,426,453
12:44:36.274,,-1997,426,453
12:44:36.275,,-1898,328,515
12:44:36.277,,-1898,328,515
12:44:36.278,,-1898,328,515
12:44:36.280,,-1898,328,515
12:44:36.281,,-1898,328,515
12:44:36.282,,-1898,328,515
12:44:36.285,,-1639,235,613
12:44:36.295,,-1359,258,707
12:44:36.305,,-1098,258,805
12:44:36.315,,-888,331,806
12:44:36.325,,-719,440,695
12:44:36.335,,-593,559,593
12:44:36.345,,-504,671,548
12:44:36.355,,-424,733,530
12:44:36.365,,-358,850,571
12:44:36.375,,-343,1041,819
12:44:36.385,,-287,1033,1199
12:44:36.395,,-142,1011,1489
12:44:36.405,,309,1141,1401
12:44:36.415,,662,1304,1260
12:44:36.425,,996,1362,1101
12:44:36.435,,1279,1454,1007
12:44:36.445,,1509,1454,900
12:44:36.455,,1619,1411,858
12:44:36.465,,1618,1377,921
12:44:36.475,,1617,1370,1028
12:44:36.485,,1677,1419,1042
12:44:36.495,,1819,1552,833
12:44:36.505,,1987,1670,513
12:44:36.515,,1997,1733,196
12:44:36.525,,1997,1756,-44
12:44:36.535,,1997,1666,-136
12:44:36.545,,1997,1729,-266
12:44:36.555,,1997,1866,-577
12:44:36.565,,1997,1993,-989
12:44:36.575,,1997,1997,-1322
12:44:36.585,,1997,1997,-1575
12:44:36.595,,1997,1997,-1736
12:44:36.605,,1997,1997,-1750
12:44:36.615,,1997,1997,-1670
12:44:36.625,,1997,1997,-1491
12:44:36.635,,1997,1997,-1290
12:44:36.645,,1973,1997,-1128
12:44:36.655,,1793,1997,-797
12:44:36.665,,1683,1995,-615
12:44:36.675,,1719,1955,-323
12:44:36.685,,1718,1905,-29
12:44:36.695,,1689,1849,260
12:44:36.705,,1640,1794,487
12:44:36.715,,1559,1784,642
12:44:36.725,,1442,1757,756
12:44:36.735,,1315,1690,818
12:44:36.745,,1180,1646,841
12:44:36.755,,1059,1640,795
12:44:36.765,,927,1628,726
12:44:36.775,,808,1614,674
12:44:36.785,,724,1613,614
12:44:36.795,,631,1601,613
12:44:36.805,,584,1583,626
12:44:36.815,,603,1550,628
12:44:36.825,,627,1544,610
12:44:36.835,,580,1549,659
12:44:36.845,,559,1558,739
12:44:36.855,,603,1658,716
12:44:36.865,,595,1882,572
12:44:36.875,,505,1997,458
12:44:36.885,,462,1997,375
12:44:36.895,,353,1997,294
12:44:36.905,,48,1997,-3
12:44:36.915,,-1360,1997,-915
12:44:36.925,,-1987,1997,-1486
12:44:36.935,,-1998,1997,-1969
12:44:36.945,,-1998,1997,-1997
12:44:36.955,,-1998,1997,-1997
12:44:36.965,,-1998,1980,-1997
12:44:36.975,,-1998,1852,-1662
12:44:36.985,,-1998,1725,-965
12:44:36.995,,-1998,1501,-483
12:44:37.005,,-1998,1172,-300
12:44:37.015,,-1998,811,-337
12:44:37.025,,-1998,504,-426
12:44:37.035,,-1998,295,-438
12:44:37.045,,-1998,97,-401
12:44:37.055,,-1925,88,-361
12:44:37.065,,-1689,134,-318
12:44:37.075,,-1456,127,-282
12:44:37.085,,-1265,175,-264
12:44:37.095,,-1103,273,-334
12:44:37.105,,-958,375,-406
12:44:37.115,,-879,482,-433
12:44:37.125,,-889,520,-465
12:44:37.135,,-903,497,-490
12:44:37.145,,-814,535,-419
12:44:37.155,,-687,593,-325
12:44:37.165,,-571,653,-242
12:44:37.175,,-318,927,-85
12:44:37.185,,-184,1097,44
12:44:37.195,,-65,1262,197
12:44:37.205,,111,1400,304
12:44:37.215,,291,1473,413
12:44:37.225,,449,1531,579
12:44:37.235,,578,1546,748
12:44:37.245,,727,1549,814
12:44:37.255,,891,1563,679
12:44:37.265,,967,1598,569
12:44:37.275,,1090,1563,428
12:44:37.285,,1191,1556,331
12:44:37.295,,1166,1525,246
12:44:37.305,,1202,1499,310
12:44:37.315,,1325,1529,359
12:44:37.325,,1534,1613,277
12:44:37.335,,1739,1758,72
12:44:37.345,,1923,1893,-127
12:44:37.355,,1997,1994,-381
12:44:37.365,,1997,1997,-787
12:44:37.375,,1997,1997,-1261
12:44:37.385,,1997,1997,-1605
12:44:37.395,,1997,1997,-1842
12:44:37.405,,1997,1997,-1873
12:44:37.415,,1997,1997,-1946
12:44:37.425,,1992,1997,-1997
12:44:37.435,,1895,1997,-1997
12:44:37.445,,1808,1980,-1899
12:44:37.455,,1757,1889,-1641
12:44:37.465,,1739,1805,-1320
12:44:37.475,,1748,1730,-987
12:44:37.485,,1746,1568,-652
12:44:37.495,,1719,1529,-423
12:44:37.505,,1701,1516,-250
12:44:37.515,,1695,1429,-191
12:44:37.525,,1631,1409,-142
12:44:37.535,,1590,1439,-147
12:44:37.545,,1587,1480,-188
12:44:37.555,,1542,1560,-55
12:44:37.707,,39,1997,417
12:44:37.709,,39,1997,417
12:44:37.710,,39,1997,417
12:44:37.711,,39,1997,417
12:44:37.713,,39,1997,169
12:44:37.714,,-262,1997,169
12:44:37.716,,-262,1997,169
12:44:37.717,,-262,1997,169
12:44:37.718,,-262,1997,169
12:44:37.720,,-262,1997,169
12:44:37.721,,-262,1997,169
12:44:37.722,,-641,1997,-87
12:44:37.724,,-641,1997,-87
12:44:37.725,,-641,1997,-87
12:44:37.726,,-641,1997,-87
12:44:37.728,,-641,1997,-87
12:44:37.729,,-641,1997,-87
12:44:37.735,,-1157,1997,-457
12:44:37.745,,-1778,1997,-897
12:44:37.755,,-1998,1997,-1429
12:44:37.765,,-1998,1997,-1847
12:44:37.775,,-1998,1997,-1990
12:44:37.785,,-1998,1997,-1668
12:44:37.795,,-1998,1981,-1009
12:44:37.805,,-1998,1791,-549
12:44:37.815,,-1998,1480,-285
12:44:37.825,,-1998,1261,-353
12:44:37.835,,-1998,1066,-476
12:44:37.845,,-1998,875,-573
12:44:37.855,,-1998,679,-593
12:44:37.865,,-1998,548,-569
12:44:37.875,,-1998,505,-515
12:44:37.885,,-1903,448,-476
12:44:37.895,,-1776,488,-441
12:44:37.905,,-1677,548,-469
12:44:37.915,,-1602,641,-518
12:44:37.925,,-1560,730,-569
12:44:37.935,,-1481,756,-604
12:44:37.945,,-1228,641,-496
12:44:37.955,,-1092,589,-350
12:44:37.965,,-920,523,-224
12:44:37.975,,-762,520,-126
12:44:37.985,,-640,586,-54
12:44:37.995,,-521,668,35
12:44:38.005,,-405,759,86
12:44:38.015,,-247,868,121
12:44:38.025,,-88,993,154
12:44:38.035,,80,1094,172
12:44:38.045,,229,1186,183
12:44:38.055,,393,1280,182
12:44:38.065,,544,1336,91
12:44:38.075,,831,1431,135
12:44:38.085,,943,1395,220
12:44:38.095,,1030,1290,294
12:44:38.105,,1088,1252,355
12:44:38.115,,1134,1198,370
12:44:38.125,,1204,1176,304
12:44:38.135,,1266,1236,246
12:44:38.145,,1391,1255,84
12:44:38.155,,1503,1294,-85
12:44:38.165,,1574,1386,-296
12:44:38.175,,1565,1516,-539
12:44:38.185,,1490,1589,-752
12:44:38.195,,1414,1659,-997
12:44:38.205,,1411,1812,-1110
12:44:38.215,,1511,1900,-1280
12:44:38.225,,1657,1940,-1471
12:44:38.235,,1803,1954,-1598
12:44:38.245,,1957,1962,-1711
12:44:38.255,,1997,1937,-1792
12:44:38.265,,1997,1912,-1830
12:44:38.275,,1997,1875,-1845
12:44:38.285,,1997,1845,-1814
12:44:38.295,,1997,1809,-1790
12:44:38.305,,1997,1775,-1776
12:44:38.315,,1992,1769,-1673
12:44:38.325,,1881,1736,-1339
12:44:38.335,,1800,1728,-1144
12:44:38.345,,1741,1690,-906
12:44:38.355,,1741,1646,-657
12:44:38.365,,1768,1598,-406
12:44:38.375,,1798,1540,-129
12:44:38.385,,1824,1483,64
12:44:38.395,,1786,1431,228
12:44:38.405,,1713,1375,387
12:44:38.415,,1663,1342,535
12:44:38.425,,1566,1324,647
12:44:38.435,,1455,1312,695
12:44:38.445,,1410,1329,717
12:44:38.455,,1214,1489,721
12:44:38.465,,1112,1510,848
12:44:38.475,,1010,1544,936
12:44:38.485,,826,1653,898
12:44:38.495,,604,1780,731
12:44:38.505,,393,1876,563
12:44:38.515,,168,1968,400
12:44:38.525,,-75,1997,177
12:44:38.535,,-338,1996,119
12:44:38.545,,-607,1975,37
12:44:38.555,,-891,1978,-136
12:44:38.565,,-1178,1990,-427
12:44:38.575,,-1473,1987,-748
12:44:38.585,,-1961,1952,-1154
12:44:38.595,,-1998,1953,-1110
12:44:38.605,,-1998,1977,-939
12:44:38.615,,-1998,1969,-848
12:44:38.625,,-1998,1924,-828
12:44:38.635,,-1998,1859,-746
12:44:38.645,,-1998,1702,-683
12:44:38.655,,-1998,1478,-677
12:44:38.665,,-1998,1248,-693
12:44:38.675,,-1998,990,-711
12:44:38.685,,-1998,707,-680
12:44:38.695,,-1915,457,-586
12:44:38.705,,-1782,289,-516
12:44:38.715,,-1602,20,-391
12:44:38.725,,-1545,-66,-339
12:44:38.735,,-1551,-88,-289
12:44:38.745,,-1530,-60,-320
12:44:38.755,,-1482,51,-397
12:44:38.765,,-1363,190,-518
12:44:38.775,,-1191,234,-640
12:44:38.785,,-1030,250,-716
12:44:38.795,,-869,283,-718
12:44:38.805,,-729,307,-681
12:44:38.815,,-635,268,-579
12:44:38.825,,-528,249,-461
12:44:38.835,,-416,248,-42
12:44:38.845,,-164,371,87
12:44:38.855,,-19,479,122
12:44:38.865,,105,579,83
12:44:38.875,,175,676,19
12:44:38.885,,229,778,-70
12:44:38.895,,270,871,-152
12:44:38.905,,311,981,-159
12:44:38.915,,409,1112,-123
12:44:38.925,,542,1241,-41
12:44:38.935,,717,1350,146
12:44:38.945,,945,1369,292
12:44:38.955,,1149,1413,349
12:44:38.965,,1330,1466,205
12:44:38.975,,1881,1527,27
12:44:38.985,,1997,1496,-142
12:44:38.995,,1997,1511,-352
12:44:39.005,,1997,1527,-534
12:44:39.152,,1619,1457,-1007
12:44:39.153,,1619,1457,-1007
12:44:39.154,,1619,1457,-1007
12:44:39.156,,1619,1457,-1007
12:44:39.157,,1619,1457,-1007
12:44:39.158,,1619,1457,-1007
12:44:39.160,,1619,1457,-841
12:44:39.161,,1493,1393,-841
12:44:39.163,,1493,1393,-841
12:44:39.164,,1493,1393,-841
12:44:39.165,,1493,1393,-841
12:44:39.167,,1493,1393,-841
12:44:39.168,,1493,1393,-841
12:44:39.169,,1413,1326,-667
12:44:39.171,,1413,1326,-667
12:44:39.172,,1413,1326,-667
12:44:39.175,,1413,1326,-667
12:44:39.185,,1373,1256,-469
12:44:39.195,,1356,1203,-242
12:44:39.205,,1393,1157,-15
12:44:39.215,,1465,1145,172
12:44:39.225,,1545,1134,519
12:44:39.235,,1512,1169,597
12:44:39.245,,1436,1208,599
12:44:39.255,,1309,1254,557
12:44:39.265,,1166,1317,490
12:44:39.275,,1008,1401,474
12:44:39.285,,825,1469,444
12:44:39.295,,625,1517,367
12:44:39.305,,538,1561,379
12:44:39.315,,518,1568,448
12:44:39.325,,553,1577,592
12:44:39.335,,561,1635,744
12:44:39.345,,475,1782,819
12:44:39.355,,-197,1997,402
12:44:39.365,,-748,1997,9
12:44:39.375,,-1286,1997,-450
12:44:39.385,,-1808,1997,-883
12:44:39.395,,-1998,1997,-1160
12:44:39.405,,-1998,1997,-1197
12:44:39.415,,-1998,1997,-1040
12:44:39.425,,-1998,1997,-743
12:44:39.435,,-1998,1947,-508
12:44:39.445,,-1998,1762,-392
12:44:39.455,,-1998,1571,-351
12:44:39.465,,-1998,1333,-422
12:44:39.475,,-1998,1103,-517
12:44:39.485,,-1998,642,-562
12:44:39.495,,-1998,456,-527
12:44:39.505,,-1998,320,-508
12:44:39.515,,-1998,261,-492
12:44:39.525,,-1998,267,-501
12:44:39.535,,-1998,323,-516
12:44:39.545,,-1998,404,-551
12:44:39.555,,-1998,516,-616
12:44:39.565,,-1942,597,-661
12:44:39.575,,-1806,647,-641
12:44:39.585,,-1620,628,-636
12:44:39.595,,-1448,599,-624
12:44:39.605,,-1275,562,-515
12:44:39.615,,-1028,498,-439
12:44:39.625,,-834,493,-335
12:44:39.635,,-674,513,-226
12:44:39.645,,-544,527,-135
12:44:39.655,,-398,547,-54
12:44:39.665,,-239,570,-11
12:44:39.675,,-105,569,58
12:44:39.685,,-20,598,119
12:44:39.695,,50,609,156
12:44:39.705,,115,664,139
12:44:39.715,,196,737,66
12:44:39.725,,250,808,-8
12:44:39.735,,286,962,-25
12:44:39.745,,405,1042,-17
12:44:39.755,,474,1102,13
12:44:39.765,,584,1149,101
12:44:39.775,,762,1227,143
12:44:39.785,,954,1279,213
12:44:39.795,,1172,1275,273
12:44:39.805,,1406,1252,262
12:44:39.815,,1631,1232,186
12:44:39.825,,1818,1252,73
12:44:39.835,,1952,1318,-81
12:44:39.845,,1997,1335,-314
12:44:39.855,,1997,1377,-527
12:44:39.865,,1997,1417,-886
12:44:39.875,,1987,1448,-1005
12:44:39.885,,1910,1484,-1089
12:44:39.895,,1846,1515,-1204
12:44:39.905,,1836,1532,-1289
12:44:39.915,,1875,1548,-1373
12:44:39.925,,1933,1552,-1442
12:44:39.935,,1994,1555,-1486
12:44:39.945,,1997,1567,-1486
12:44:39.955,,1997,1586,-1455
12:44:39.965,,1997,1613,-1376
12:44:39.975,,1997,1678,-1305
12:44:39.985,,1997,1772,-1314
12:44:39.995,,1997,1919,-1214
12:44:40.005,,1997,1981,-1071
12:44:40.015,,1997,1997,-941
12:44:40.025,,1997,1997,-750
12:44:40.035,,1997,1997,-490
12:44:40.045,,1996,1971,-201
12:44:40.055,,1910,1901,148
12:44:40.065,,1747,1852,561
12:44:40.075,,1592,1813,925
12:44:40.085,,1567,1786,1185
12:44:40.095,,1585,1878,1357
12:44:40.105,,1510,1995,1459
12:44:40.115,,1375,1997,1401
12:44:40.125,,901,1997,747
12:44:40.135,,585,1997,499
12:44:40.145,,235,1997,301
12:44:40.155,,-91,1997,168
12:44:40.165,,-340,1997,123
12:44:40.175,,-519,1997,197
12:44:40.185,,-704,1997,220
12:44:40.195,,-921,1997,20
12:44:40.205,,-1198,1997,-373
12:44:40.215,,-1648,1997,-896
12:44:40.225,,-1998,1997,-1496
12:44:40.235,,-1998,1997,-1959
12:44:40.245,,-1998,1997,-1964
12:44:40.255,,-1998,1997,-1751
12:44:40.265,,-1998,1987,-1541
12:44:40.275,,-1998,1838,-1318
12:44:40.285,,-1998,1595,-1057
12:44:40.295,,-1998,1349,-951
12:44:40.305,,-1998,1125,-909
12:44:40.315,,-1998,869,-835
12:44:40.325,,-1998,718,-750
12:44:40.335,,-1998,726,-752
12:44:40.345,,-1998,784,-727
12:44:40.355,,-1998,912,-675
12:44:40.365,,-1998,1092,-668
12:44:40.375,,-1993,1346,-852
12:44:40.385,,-1362,1544,-811
12:44:40.395,,-1052,1600,-582
12:44:40.405,,-775,1645,-238
12:44:40.415,,-563,1713,35
12:44:40.425,,-434,1756,313
12:44:40.577,,1997,1891,35
12:44:40.579,,1997,1891,35
12:44:40.580,,1997,1997,-469
12:44:40.582,,1997,1997,-469
12:44:40.583,,1997,1997,-469
12:44:40.584,,1997,1997,-469
12:44:40.586,,1997,1997,-469
12:44:40.587,,1997,1997,-469
12:44:40.588,,1997,1997,-1178
12:44:40.590,,1997,1997,-1178
12:44:40.591,,1997,1997,-1178
12:44:40.592,,1997,1997,-1178
12:44:40.594,,1997,1997,-1178
12:44:40.595,,1997,1997,-1178
12:44:40.597,,1997,1997,-1178
12:44:40.598,,1997,1997,-1854
12:44:40.599,,1997,1997,-1854
12:44:40.605,,1997,1997,-1854
12:44:40.615,,1997,1997,-1997
12:44:40.625,,1997,1997,-1997
12:44:40.635,,1997,1997,-1997
12:44:40.645,,1997,1997,-1997
12:44:40.655,,1997,1997,-1990
12:44:40.665,,1997,1997,-1884
12:44:40.675,,1997,1997,-1711
12:44:40.685,,1997,1997,-1527
12:44:40.695,,1997,1997,-1303
12:44:40.705,,1997,1997,-913
12:44:40.715,,1997,1997,-381
12:44:40.725,,1997,1997,175
12:44:40.735,,1997,1997,753
12:44:40.745,,1997,1997,1274
12:44:40.755,,1995,1997,1691
12:44:40.765,,1664,1997,1823
12:44:40.775,,1501,1997,1583
12:44:40.785,,1361,1997,1303
12:44:40.795,,1096,1997,1032
12:44:40.805,,824,1997,802
12:44:40.815,,565,1997,686
12:44:40.825,,374,1997,682
12:44:40.835,,232,1997,632
12:44:40.845,,130,1997,453
12:44:40.855,,-15,1997,147
12:44:40.865,,-303,1997,-299
12:44:40.875,,-847,1997,-948
12:44:40.885,,-1706,1997,-1789
12:44:40.895,,-1998,1997,-1997
12:44:40.905,,-1998,1997,-1997
12:44:40.915,,-1998,1997,-1997
12:44:40.925,,-1998,1997,-1997
12:44:40.935,,-1998,1997,-1997
12:44:40.945,,-1998,1997,-1978
12:44:40.955,,-1998,1997,-1690
12:44:40.965,,-1874,1828,-1261
12:44:40.975,,-1621,1497,-857
12:44:40.985,,-1521,1308,-498
12:44:40.995,,-1451,1231,-258
12:44:41.005,,-1359,1256,-41
12:44:41.015,,-1301,1370,288
12:44:41.025,,-1068,1574,280
12:44:41.035,,-893,1708,344
12:44:41.045,,-647,1899,366
12:44:41.055,,-439,1997,394
12:44:41.065,,-191,1997,430
12:44:41.075,,60,1997,435
12:44:41.085,,219,1997,439
12:44:41.095,,331,1997,412
12:44:41.105,,493,1997,364
12:44:41.115,,748,1997,381
12:44:41.125,,1135,1997,466
12:44:41.135,,1717,1997,386
12:44:41.145,,1997,1997,-572
12:44:41.155,,1997,1997,-1077
12:44:41.165,,1997,1997,-1128
12:44:41.175,,1997,1986,-803
12:44:41.185,,1997,1997,-686
12:44:41.195,,1997,1997,-1065
12:44:41.205,,1997,1997,-1817
12:44:41.215,,1997,1997,-1997
12:44:41.225,,1791,1997,-1997
12:44:41.235,,1549,1997,-1997
12:44:41.245,,1609,1997,-1997
12:44:41.255,,1919,1965,-1997
12:44:41.265,,1997,1767,-1897
12:44:41.275,,1997,1462,-1233
12:44:41.285,,1997,1443,-834
12:44:41.295,,1997,1461,-508
12:44:41.305,,1997,1515,-226
12:44:41.315,,1997,1590,88
12:44:41.325,,1997,1679,423
12:44:41.335,,1976,1763,739
12:44:41.345,,1819,1775,900
12:44:41.355,,1642,1826,994
12:44:41.365,,1469,1883,1024
12:44:41.375,,1306,1980,956
12:44:41.385,,1189,1997,856
12:44:41.395,,1046,1997,779
12:44:41.405,,677,1997,766
12:44:41.415,,553,1997,813
12:44:41.425,,460,1997,854
12:44:41.435,,395,1997,744
12:44:41.445,,326,1997,472
12:44:41.455,,205,1997,43
12:44:41.465,,-21,1997,-556
12:44:41.475,,-438,1997,-1181
12:44:41.485,,-952,1997,-1814
12:44:41.495,,-1654,1997,-1997
12:44:41.505,,-1998,1997,-1997
12:44:41.515,,-1998,1997,-1997
12:44:41.525,,-1998,1997,-1997
12:44:41.535,,-1998,1997,-1997
12:44:41.545,,-1998,1997,-1997
12:44:41.555,,-1998,1997,-1975
12:44:41.565,,-1998,1997,-1524
12:44:41.575,,-1918,1946,-1029
12:44:41.585,,-1797,1855,-693
12:44:41.595,,-1754,1906,-435
12:44:41.605,,-1796,1996,-313
12:44:41.615,,-1791,1997,-294
12:44:41.625,,-1666,1997,-154
12:44:41.635,,-1401,1997,-18
12:44:41.645,,-1079,1997,215
12:44:41.655,,-776,1997,635
12:44:41.665,,-40,1997,1177
12:44:41.675,,380,1997,1378
12:44:41.685,,874,1997,1431
12:44:41.695,,1469,1997,1334
12:44:41.705,,1961,1997,987
12:44:41.715,,1997,1997,284
12:44:41.725,,1997,1997,-307
12:44:41.735,,1997,1997,-714
12:44:41.745,,1997,1997,-1019
12:44:41.755,,1997,1997,-1178
12:44:41.765,,1997,1997,-1127
12:44:41.775,,1997,1997,-903
12:44:41.785,,1997,1997,-1745
12:44:41.795,,1997,1997,-1997
12:44:41.805,,1997,1997,-1997
12:44:41.815,,1961,1997,-1997
12:44:41.825,,1919,1997,-1997
12:44:41.835,,1995,1993,-1988
12:44:41.982,,878,1997,730
12:44:41.983,,878,1997,730
12:44:41.985,,878,1997,730
12:44:41.986,,878,1997,730
12:44:41.988,,878,1997,730
12:44:41.989,,878,1997,662
12:44:41.990,,691,1997,662
12:44:41.992,,691,1997,662
12:44:41.993,,691,1997,662
12:44:41.994,,691,1997,662
12:44:41.996,,691,1997,662
12:44:41.997,,691,1997,662
12:44:41.998,,516,1997,570
12:44:42.000,,516,1997,570
12:44:42.001,,516,1997,570
12:44:42.003,,516,1997,570
12:44:42.005,,516,1997,570
12:44:42.015,,363,1997,380
12:44:42.025,,205,1997,117
12:44:42.035,,-66,1997,-293
12:44:42.045,,-1346,1997,-1668
12:44:42.055,,-1972,1997,-1997
12:44:42.065,,-1998,1997,-1997
12:44:42.075,,-1998,1997,-1997
12:44:42.085,,-1998,1997,-1997
12:44:42.095,,-1998,1997,-1997
12:44:42.105,,-1998,1997,-1997
12:44:42.115,,-1998,1997,-1997
12:44:42.125,,-1872,1997,-1997
12:44:42.135,,-1503,1997,-1954
12:44:42.145,,-1279,1997,-1535
12:44:42.155,,-1203,1997,-1059
12:44:42.165,,-1275,1997,-609
12:44:42.175,,-1142,1997,-100
12:44:42.185,,-911,1997,86
12:44:42.195,,-601,1997,260
12:44:42.205,,-370,1997,459
12:44:42.215,,-41,1997,632
12:44:42.225,,339,1997,861
12:44:42.235,,800,1997,1182
12:44:42.245,,1547,1997,1272
12:44:42.255,,1997,1997,882
12:44:42.265,,1997,1997,105
12:44:42.275,,1997,1997,-438
12:44:42.285,,1997,1997,-418
12:44:42.295,,1997,1804,-45
12:44:42.305,,1997,1182,-222
12:44:42.315,,1997,1298,-560
12:44:42.325,,1997,1571,-1009
12:44:42.335,,1997,1872,-1505
12:44:42.345,,1997,1997,-1969
12:44:42.355,,1997,1997,-1997
12:44:42.365,,1997,1997,-1997
12:44:42.375,,1997,1983,-1997
12:44:42.385,,1997,1809,-1997
12:44:42.395,,1997,1587,-1941
12:44:42.405,,1997,1356,-1652
12:44:42.415,,1997,1154,-1396
12:44:42.425,,1997,1022,-874
12:44:42.435,,1861,861,-556
12:44:42.445,,1770,803,-259
12:44:42.455,,1748,758,-5
12:44:42.465,,1710,734,253
12:44:42.475,,1578,700,495
12:44:42.485,,1397,670,595
12:44:42.495,,1207,677,561
12:44:42.505,,1030,733,429
12:44:42.515,,857,784,293
12:44:42.525,,697,837,202
12:44:42.535,,538,856,116
12:44:42.545,,421,832,80
12:44:42.555,,342,767,199
12:44:42.565,,217,602,284
12:44:42.575,,204,594,308
12:44:42.585,,179,619,278
12:44:42.595,,139,663,213
12:44:42.605,,88,760,77
12:44:42.615,,9,849,-86
12:44:42.625,,-110,916,-188
12:44:42.635,,-267,957,-288
12:44:42.645,,-481,991,-360
12:44:42.655,,-758,1070,-434
12:44:42.665,,-1089,1173,-562
12:44:42.675,,-1507,1302,-813
12:44:42.685,,-1918,1474,-1749
12:44:42.695,,-1998,1429,-1997
12:44:42.705,,-1998,1322,-1997
12:44:42.715,,-1998,1204,-1997
12:44:42.725,,-1998,1101,-1997
12:44:42.735,,-1998,1004,-1997
12:44:42.745,,-1998,893,-1781
12:44:42.755,,-1959,784,-1433
12:44:42.765,,-1763,673,-1164
12:44:42.775,,-1546,547,-925
12:44:42.785,,-1322,459,-731
12:44:42.795,,-1128,398,-622
12:44:42.805,,-967,359,-543
12:44:42.815,,-690,269,-418
12:44:42.825,,-567,211,-380
12:44:42.835,,-491,198,-310
12:44:42.845,,-454,170,-197
12:44:42.855,,-396,151,-79
12:44:42.865,,-294,161,7
12:44:42.875,,-180,193,66
12:44:42.885,,-72,264,115
12:44:42.895,,50,362,158
12:44:42.905,,193,462,258
12:44:42.915,,346,556,356
12:44:42.925,,487,664,347
12:44:42.935,,572,780,273
12:44:42.945,,725,1001,63
12:44:42.955,,880,1097,-51
12:44:42.965,,1068,1174,-142
12:44:42.975,,1261,1201,-237
12:44:42.985,,1510,1153,-316
12:44:42.995,,1793,1136,-393
12:44:43.005,,1989,1076,-490
12:44:43.015,,1997,976,-516
12:44:43.025,,1997,880,-483
12:44:43.035,,1997,867,-400
12:44:43.045,,1997,941,-414
12:44:43.055,,1997,1047,-556
12:44:43.065,,1997,1147,-799
12:44:43.075,,1997,1302,-1396
12:44:43.085,,1997,1325,-1578
12:44:43.095,,1961,1307,-1671
12:44:43.105,,1928,1354,-1724
12:44:43.115,,1932,1269,-1663
12:44:43.125,,1995,1176,-1467
12:44:43.135,,1997,1112,-1269
12:44:43.145,,1997,1003,-1108
12:44:43.155,,1997,938,-932
12:44:43.165,,1997,864,-789
12:44:43.175,,1997,829,-668
12:44:43.185,,1997,814,-602
12:44:43.195,,1937,807,-454
12:44:43.205,,1729,826,-350
12:44:43.215,,1657,846,-223
12:44:43.225,,1562,839,-102
12:44:43.235,,1441,801,18
12:44:43.245,,1320,777,141
12:44:43.255,,1216,766,256
12:44:43.265,,1100,761,357
12:44:43.275,,962,777,422
12:44:43.285,,851,807,470
12:44:43.438,,-1998,1544,-1997
12:44:43.439,,-1998,1544,-1997
12:44:43.440,,-1998,1544,-1997
12:44:43.442,,-1998,1544,-1997
12:44:43.443,,-1998,1544,-1997
12:44:43.445,,-1998,1544,-1997
12:44:43.446,,-1998,1473,-1991
12:44:43.447,,-1998,1473,-1991
12:44:43.449,,-1998,1473,-1991
12:44:43.450,,-1998,1473,-1991
12:44:43.451,,-1998,1473,-1991
12:44:43.453,,-1998,1473,-1991
12:44:43.454,,-1998,1473,-1991
12:44:43.456,,-1998,1420,-1814
12:44:43.457,,-1998,1420,-1814
12:44:43.458,,-1998,1420,-1814
12:44:43.460,,-1998,1420,-1814
12:44:43.465,,-1998,1319,-1611
12:44:43.475,,-1998,1192,-1465
12:44:43.485,,-1948,1024,-1312
12:44:43.495,,-1842,801,-1197
12:44:43.505,,-1759,561,-1090
12:44:43.515,,-1705,371,-941
12:44:43.525,,-1675,234,-783
12:44:43.535,,-1692,175,-650
12:44:43.545,,-1723,191,-554
12:44:43.555,,-1744,231,-465
12:44:43.565,,-1679,251,-390
12:44:43.575,,-1550,104,-430
12:44:43.585,,-1192,0,-473
12:44:43.595,,-1040,-85,-451
12:44:43.605,,-891,-31,-385
12:44:43.615,,-733,33,-342
12:44:43.625,,-593,48,-358
12:44:43.635,,-506,25,-337
12:44:43.645,,-434,92,-282
12:44:43.655,,-381,138,-228
12:44:43.665,,-281,161,-151
12:44:43.675,,-150,245,-77
12:44:43.685,,-17,362,14
12:44:43.695,,126,465,84
12:44:43.705,,273,578,89
12:44:43.715,,669,825,-38
12:44:43.725,,873,879,-139
12:44:43.735,,1036,869,-179
12:44:43.745,,1173,806,-91
12:44:43.755,,1236,753,54
12:44:43.765,,1291,704,185
12:44:43.775,,1368,649,247
12:44:43.785,,1440,608,258
12:44:43.795,,1508,598,199
12:44:43.805,,1566,596,121
12:44:43.815,,1567,643,37
12:44:43.825,,1519,712,-54
12:44:43.835,,1496,792,-132
12:44:43.845,,1539,988,-428
12:44:43.855,,1626,1051,-575
12:44:43.865,,1791,1102,-717
12:44:43.875,,1956,1141,-746
12:44:43.885,,1997,1080,-766
12:44:43.895,,1997,1034,-786
12:44:43.905,,1997,969,-815
12:44:43.915,,1997,916,-845
12:44:43.925,,1997,881,-877
12:44:43.935,,1997,896,-920
12:44:43.945,,1997,888,-956
12:44:43.955,,1997,865,-961
12:44:43.965,,1997,846,-851
12:44:43.975,,1997,812,-728
12:44:43.985,,1997,784,-526
12:44:43.995,,1997,757,-305
12:44:44.005,,1997,765,-122
12:44:44.015,,1997,766,55
12:44:44.025,,1997,744,231
12:44:44.035,,1997,733,341
12:44:44.045,,1969,775,419
12:44:44.055,,1827,809,563
12:44:44.065,,1679,789,655
12:44:44.075,,1499,791,708
12:44:44.085,,1354,792,727
12:44:44.095,,1238,775,806
12:44:44.105,,1096,797,887
12:44:44.115,,1039,854,972
12:44:44.125,,972,916,1021
12:44:44.135,,893,1006,1010
12:44:44.145,,805,1127,966
12:44:44.155,,697,1265,831
12:44:44.165,,575,1407,645
12:44:44.175,,485,1532,503
12:44:44.185,,454,1661,388
12:44:44.195,,341,1895,178
12:44:44.205,,148,1997,-69
12:44:44.215,,-143,1997,-322
12:44:44.225,,-946,1997,-1131
12:44:44.235,,-1577,1997,-1570
12:44:44.245,,-1997,1997,-1950
12:44:44.255,,-1998,1997,-1997
12:44:44.265,,-1998,1988,-1997
12:44:44.275,,-1998,1872,-1997
12:44:44.285,,-1998,1771,-1993
12:44:44.295,,-1998,1628,-1743
12:44:44.305,,-1998,1483,-1425
12:44:44.315,,-1974,1304,-1184
12:44:44.325,,-1784,1051,-960
12:44:44.335,,-1605,768,-799
12:44:44.345,,-1492,498,-711
12:44:44.355,,-1461,189,-540
12:44:44.365,,-1423,132,-485
12:44:44.375,,-1356,131,-433
12:44:44.385,,-1270,169,-385
12:44:44.395,,-1166,210,-369
12:44:44.405,,-1095,199,-389
12:44:44.415,,-1023,163,-418
12:44:44.425,,-927,157,-440
12:44:44.435,,-850,157,-468
12:44:44.445,,-807,158,-488
12:44:44.455,,-745,162,-486
12:44:44.465,,-696,186,-421
12:44:44.475,,-619,217,-355
12:44:44.485,,-385,304,-229
12:44:44.495,,-275,370,-144
12:44:44.505,,-176,466,-77
12:44:44.515,,-78,540,-12
12:44:44.525,,49,650,60
12:44:44.535,,175,768,117
12:44:44.545,,302,889,146
12:44:44.555,,435,1017,151
12:44:44.565,,546,1120,138
12:44:44.575,,651,1190,116
12:44:44.585,,766,1224,95
12:44:44.595,,919,1281,88
12:44:44.605,,1165,1442,39
12:44:44.615,,1891,1298,-28
12:44:44.625,,1997,1136,-119
12:44:44.635,,1997,997,-146
12:44:44.645,,1997,897,-70
12:44:44.655,,1997,873,-16
12:44:44.665,,1997,905,-61
12:44:44.675,,1970,992,-206
12:44:44.685,,1840,1112,-447
12:44:44.695,,1794,1215,-742
12:44:44.705,,1854,1306,-1042
12:44:44.715,,1977,1394,-1335
12:44:44.725,,1997,1437,-1514
12:44:44.872,,1411,870,39
12:44:44.874,,1411,836,188
12:44:44.875,,1397,836,188
12:44:44.876,,1397,836,188
12:44:44.878,,1397,836,188
12:44:44.879,,1397,836,188
12:44:44.881,,1397,836,188
12:44:44.882,,1397,836,188
12:44:44.883,,1437,805,308
12:44:44.885,,1437,805,308
12:44:44.886,,1437,805,308
12:44:44.887,,1437,805,308
12:44:44.889,,1437,805,308
12:44:44.890,,1437,805,308
12:44:44.891,,1437,805,308
12:44:44.893,,1428,806,358
12:44:44.895,,1428,806,358
12:44:44.905,,1364,799,323
12:44:44.915,,1313,815,270
12:44:44.925,,1200,855,198
12:44:44.935,,1073,881,146
12:44:44.945,,946,889,162
12:44:44.955,,820,884,215
12:44:44.965,,724,860,289
12:44:44.975,,663,828,368
12:44:44.985,,640,814,418
12:44:44.995,,591,910,329
12:44:45.004,,556,961,265
12:44:45.014,,511,1074,125
12:44:45.024,,521,1213,-39
12:44:45.034,,514,1350,-183
12:44:45.044,,408,1496,-313
12:44:45.054,,258,1629,-383
12:44:45.064,,65,1743,-414
12:44:45.074,,-197,1809,-547
12:44:45.084,,-562,1853,-759
12:44:45.094,,-977,1856,-1026
12:44:45.104,,-1338,1820,-1364
12:44:45.114,,-1672,1844,-1703
12:44:45.124,,-1998,1964,-1994
12:44:45.134,,-1998,1997,-1907
12:44:45.144,,-1998,1995,-1583
12:44:45.154,,-1998,1900,-1216
12:44:45.164,,-1998,1747,-969
12:44:45.174,,-1998,1547,-744
12:44:45.184,,-1998,1275,-530
12:44:45.194,,-1998,1000,-439
12:44:45.204,,-1998,780,-467
12:44:45.214,,-1998,586,-513
12:44:45.224,,-1998,452,-524
12:44:45.234,,-1998,372,-476
12:44:45.244,,-1950,336,-413
12:44:45.254,,-1590,384,-399
12:44:45.264,,-1436,400,-418
12:44:45.274,,-1285,378,-467
12:44:45.284,,-1165,408,-515
12:44:45.294,,-1097,456,-536
12:44:45.304,,-1029,439,-528
12:44:45.314,,-929,421,-513
12:44:45.324,,-831,398,-495
12:44:45.334,,-747,401,-456
12:44:45.344,,-661,435,-405
12:44:45.354,,-551,483,-361
12:44:45.364,,-442,540,-314
12:44:45.374,,-329,613,-222
12:44:45.384,,-80,810,-191
12:44:45.394,,29,891,-175
12:44:45.404,,129,1013,-171
12:44:45.414,,215,1101,-188
12:44:45.424,,316,1170,-188
12:44:45.434,,431,1241,-162
12:44:45.444,,529,1288,-124
12:44:45.454,,607,1347,-16
12:44:45.464,,692,1363,55
12:44:45.474,,791,1335,56
12:44:45.484,,911,1417,73
12:44:45.494,,1093,1440,99
12:44:45.504,,1324,1217,77
12:44:45.514,,1827,1107,48
12:44:45.524,,1978,1036,38
12:44:45.534,,1997,992,96
12:44:45.544,,1997,996,162
12:44:45.554,,1969,1083,101
12:44:45.564,,1910,1221,-78
12:44:45.574,,1909,1362,-376
12:44:45.584,,1976,1494,-723
12:44:45.594,,1997,1613,-1093
12:44:45.604,,1997,1663,-1442
12:44:45.614,,1997,1667,-1665
12:44:45.624,,1997,1619,-1673
12:44:45.634,,1997,1529,-1325
12:44:45.644,,1997,1473,-1255
12:44:45.654,,1997,1427,-1286
12:44:45.664,,1997,1384,-1231
12:44:45.674,,1997,1311,-1230
12:44:45.684,,1997,1341,-1109
12:44:45.694,,1997,1316,-986
12:44:45.704,,1997,1314,-828
12:44:45.714,,1997,1303,-662
12:44:45.724,,1997,1303,-536
12:44:45.734,,1967,1310,-414
12:44:45.744,,1773,1295,-255
12:44:45.754,,1579,1270,-101
12:44:45.764,,1356,1200,120
12:44:45.774,,1265,1160,234
12:44:45.784,,1189,1094,372
12:44:45.794,,1152,1038,497
12:44:45.804,,1137,998,589
12:44:45.814,,1081,997,683
12:44:45.824,,976,1026,738
12:44:45.834,,873,1074,717
12:44:45.844,,767,1130,616
12:44:45.854,,646,1230,512
12:44:45.864,,518,1309,387
12:44:45.874,,447,1342,233
12:44:45.884,,410,1375,95
12:44:45.894,,295,1462,-54
12:44:45.904,,170,1541,-123
12:44:45.914,,23,1580,-233
12:44:45.924,,-111,1603,-316
12:44:45.934,,-266,1604,-404
12:44:45.944,,-411,1584,-481
12:44:45.954,,-552,1555,-505
12:44:45.964,,-683,1512,-589
12:44:45.974,,-821,1479,-819
12:44:45.984,,-1019,1456,-1139
12:44:45.994,,-1193,1392,-1429
12:44:46.004,,-1348,1287,-1655
12:44:46.014,,-1429,1171,-1774
12:44:46.024,,-1289,973,-1631
12:44:46.034,,-1119,941,-1398
12:44:46.044,,-915,890,-1209
12:44:46.054,,-867,854,-1088
12:44:46.064,,-985,893,-1098
12:44:46.074,,-1247,924,-1209
12:44:46.084,,-1651,967,-1287
12:44:46.094,,-1991,1013,-1302
12:44:46.104,,-1998,1058,-1156
12:44:46.114,,-1998,1030,-917
12:44:46.124,,-1998,1020,-702
12:44:46.134,,-1998,726,-573
12:44:46.144,,-1998,467,-183
12:44:46.154,,-1998,382,-184
12:44:46.164,,-1998,207,-168
12:44:46.174,,-1998,93,-105
12:44:46.324,,339,123,590
12:44:46.326,,339,123,590
12:44:46.327,,339,123,590
12:44:46.329,,339,123,590
12:44:46.330,,339,123,400
12:44:46.331,,377,158,400
12:44:46.333,,377,158,400
12:44:46.334,,377,158,400
12:44:46.335,,377,158,400
12:44:46.337,,377,158,400
12:44:46.338,,377,158,400
12:44:46.339,,420,181,244
12:44:46.341,,420,181,244
12:44:46.342,,420,181,244
12:44:46.344,,420,181,244
12:44:46.345,,420,181,244
12:44:46.346,,420,181,244
12:44:46.354,,518,117,208
12:44:46.364,,595,90,234
12:44:46.374,,652,110,257
12:44:46.384,,675,238,184
12:44:46.394,,661,419,23
12:44:46.404,,639,738,-318
12:44:46.414,,628,874,-494
12:44:46.424,,617,993,-630
12:44:46.434,,612,1069,-665
12:44:46.444,,614,1145,-589
12:44:46.454,,677,1212,-438
12:44:46.464,,781,1236,-355
12:44:46.474,,818,1322,-440
12:44:46.484,,764,1417,-620
12:44:46.494,,648,1559,-774
12:44:46.504,,561,1767,-963
12:44:46.514,,472,1961,-1266
12:44:46.524,,372,1997,-1578
12:44:46.534,,189,1997,-1963
12:44:46.544,,158,1997,-1997
12:44:46.554,,162,1997,-1997
12:44:46.564,,180,1997,-1997
12:44:46.574,,172,1997,-1997
12:44:46.584,,159,1997,-1990
12:44:46.594,,138,1997,-1913
12:44:46.604,,104,1997,-1850
12:44:46.614,,48,1980,-1749
12:44:46.624,,-35,1839,-1600
12:44:46.634,,-114,1689,-1452
12:44:46.644,,-196,1514,-1310
12:44:46.654,,-252,1440,-1107
12:44:46.664,,-276,1276,-740
12:44:46.674,,-250,1225,-605
12:44:46.684,,-229,1206,-592
12:44:46.694,,-249,1184,-551
12:44:46.704,,-238,1118,-512
12:44:46.714,,-192,1062,-454
12:44:46.724,,-154,1026,-429
12:44:46.734,,-134,1007,-475
12:44:46.744,,-143,968,-525
12:44:46.754,,-178,884,-538
12:44:46.764,,-226,830,-559
12:44:46.774,,-297,842,-601
12:44:46.784,,-403,873,-597
12:44:46.794,,-546,1119,-510
12:44:46.804,,-632,1338,-338
12:44:46.814,,-707,1505,-256
12:44:46.824,,-761,1773,-154
12:44:46.834,,-817,1918,-57
12:44:46.844,,-809,1997,71
12:44:46.854,,-713,1997,291
12:44:46.864,,-587,1997,815
12:44:46.874,,-504,1997,1571
12:44:46.884,,-366,1997,1998
12:44:46.894,,48,1997,1998
12:44:46.904,,511,1871,1998
12:44:46.914,,854,1116,1998
12:44:46.924,,827,1317,1998
12:44:46.934,,838,1409,1998
12:44:46.944,,869,1295,1998
12:44:46.954,,971,1271,1998
12:44:46.964,,1103,1251,1998
12:44:46.974,,1251,1191,1998
12:44:46.984,,1412,1094,1998
12:44:46.994,,1592,932,1998
12:44:47.004,,1713,662,1998
12:44:47.014,,1760,433,1998
12:44:47.024,,1721,395,1998
12:44:47.034,,1665,523,1998
12:44:47.044,,1588,998,1998
12:44:47.054,,1120,1172,1998
12:44:47.064,,972,1139,1998
12:44:47.074,,845,1140,1998
12:44:47.084,,635,1121,1998
12:44:47.094,,309,1122,1998
12:44:47.104,,88,1349,1998
12:44:47.114,,71,1816,1998
12:44:47.124,,292,1997,1998
12:44:47.134,,605,1997,1998
12:44:47.144,,576,1997,1998
12:44:47.154,,111,1997,1883
12:44:47.164,,-826,1997,1278
12:44:47.174,,-1466,1997,973
12:44:47.184,,-1525,1997,511
12:44:47.194,,-1603,1997,-52
12:44:47.204,,-1506,1997,-656
12:44:47.214,,-1431,1997,-1379
12:44:47.224,,-1439,1997,-1955
12:44:47.234,,-1331,1954,-1997
12:44:47.244,,-1211,1715,-1957
12:44:47.254,,-979,1554,-1499
12:44:47.264,,-678,1460,-1154
12:44:47.274,,-459,1418,-1007
12:44:47.284,,-423,1575,-1025
12:44:47.294,,-561,1721,-1255
12:44:47.304,,-1044,1997,-1932
12:44:47.314,,-1161,1997,-1997
12:44:47.324,,-1294,1997,-1997
12:44:47.334,,-1319,1997,-1997
12:44:47.344,,-1200,1997,-1997
12:44:47.354,,-1127,1997,-1997
12:44:47.364,,-1000,1997,-1997
12:44:47.374,,-910,1997,-1997
12:44:47.384,,-819,1997,-1897
12:44:47.394,,-701,1997,-1274
12:44:47.404,,-592,1997,-650
12:44:47.414,,-502,1997,-94
12:44:47.424,,-440,1997,141
12:44:47.434,,-432,1997,-41
12:44:47.444,,-492,1997,367
12:44:47.454,,-495,1997,924
12:44:47.464,,-435,1997,1279
12:44:47.474,,-424,1997,1659
12:44:47.484,,-482,1997,1965
12:44:47.494,,-435,1997,1998
12:44:47.504,,-373,1997,1998
12:44:47.514,,-241,1997,1998
12:44:47.524,,-162,1948,1998
12:44:47.534,,111,1871,1998
12:44:47.544,,449,1495,1998
12:44:47.554,,1003,506,1998
12:44:47.564,,1718,-813,1998
12:44:47.574,,1871,-421,1998
12:44:47.584,,1874,138,1998
12:44:47.594,,1794,532,1998
12:44:47.604,,1885,982,1996
12:44:47.614,,1633,1074,1824
12:44:47.761,,-1883,1997,361
12:44:47.763,,-1883,1997,361
12:44:47.764,,-1883,1997,361
12:44:47.766,,-1883,1997,361
12:44:47.767,,-1883,1997,361
12:44:47.768,,-1998,1997,-326
12:44:47.770,,-1998,1997,-326
12:44:47.771,,-1998,1997,-326
12:44:47.772,,-1998,1997,-326
12:44:47.774,,-1998,1997,-326
12:44:47.775,,-1998,1997,-326
12:44:47.776,,-1998,1997,-326
12:44:47.778,,-1998,1997,-977
12:44:47.779,,-1998,1997,-977
12:44:47.781,,-1998,1997,-977
12:44:47.782,,-1998,1997,-977
12:44:47.784,,-1998,1997,-977
12:44:47.794,,-1998,1997,-1654
12:44:47.804,,-1998,1997,-1997
12:44:47.814,,-1806,1997,-1997
12:44:47.824,,-1637,1997,-1997
12:44:47.834,,-1105,1896,-1997
12:44:47.844,,-675,1618,-1917
12:44:47.854,,-487,1481,-1416
12:44:47.864,,-471,1410,-1166
12:44:47.874,,-511,1470,-1141
12:44:47.884,,-566,1472,-1371
12:44:47.894,,-733,1485,-1811
12:44:47.904,,-932,1658,-1997
12:44:47.914,,-1088,1586,-1997
12:44:47.924,,-1245,1782,-1997
12:44:47.934,,-1345,1996,-1997
12:44:47.944,,-911,1997,-1991
12:44:47.954,,-565,1997,-1348
12:44:47.964,,-231,1997,-454
12:44:47.974,,-14,1997,215
12:44:47.984,,-10,1997,589
12:44:47.994,,-75,1997,760
12:44:48.004,,28,1997,901
12:44:48.014,,23,1997,1266
12:44:48.024,,-125,1997,1453
12:44:48.034,,-173,1997,1535
12:44:48.044,,-209,1997,1770
12:44:48.054,,-228,1827,1921
12:44:48.064,,-66,1510,1994
12:44:48.074,,536,1480,1998
12:44:48.084,,885,850,1998
12:44:48.094,,1386,-212,1998
12:44:48.104,,1787,-1135,1998
12:44:48.114,,1845,-1408,1998
12:44:48.124,,1695,-940,1998
12:44:48.134,,1566,-341,1998
12:44:48.144,,1517,-51,1974
12:44:48.154,,1720,267,1807
12:44:48.164,,1782,487,1770
12:44:48.174,,1516,539,1763
12:44:48.184,,1102,439,1801
12:44:48.194,,665,114,1976
12:44:48.204,,-7,-432,1998
12:44:48.214,,15,-416,1998
12:44:48.224,,218,-137,1998
12:44:48.234,,571,507,1998
12:44:48.244,,1140,1430,1998
12:44:48.254,,1632,1996,1998
12:44:48.264,,1528,1997,1998
12:44:48.274,,529,1997,1998
12:44:48.284,,-532,1997,1865
12:44:48.294,,-925,1997,1057
12:44:48.304,,-1362,1997,126
12:44:48.314,,-1936,1997,-669
12:44:48.324,,-1998,1997,-1619
12:44:48.334,,-1931,1997,-1977
12:44:48.344,,-1675,1997,-1997
12:44:48.354,,-1571,1925,-1997
12:44:48.364,,-1494,1693,-1997
12:44:48.374,,-1207,1532,-1997
12:44:48.384,,-811,1345,-1962
12:44:48.394,,-540,1188,-1477
12:44:48.404,,-371,1142,-1021
12:44:48.414,,-307,1131,-922
12:44:48.424,,-334,1127,-1078
12:44:48.434,,-424,1163,-1394
12:44:48.444,,-528,1304,-1771
12:44:48.454,,-630,1355,-1997
12:44:48.464,,-824,1491,-1997
12:44:48.474,,-874,1672,-1997
12:44:48.484,,-797,1790,-1997
12:44:48.494,,-697,1946,-1997
12:44:48.504,,-584,1997,-1643
12:44:48.514,,-478,1997,-724
12:44:48.524,,-423,1997,63
12:44:48.534,,-426,1997,577
12:44:48.544,,-517,1953,726
12:44:48.554,,-481,1814,528
12:44:48.564,,-356,1808,406
12:44:48.574,,-326,1975,464
12:44:48.584,,-91,1997,606
12:44:48.594,,20,1997,905
12:44:48.604,,45,1997,1253
12:44:48.614,,57,1997,1595
12:44:48.624,,202,1997,1949
12:44:48.634,,384,1858,1998
12:44:48.644,,551,1492,1998
12:44:48.654,,810,1112,1998
12:44:48.664,,1009,655,1998
12:44:48.674,,1338,-142,1998
12:44:48.684,,1535,-840,1998
12:44:48.694,,1630,-946,1998
12:44:48.704,,1659,-478,1998
12:44:48.714,,1526,436,1985
12:44:48.724,,1442,691,1610
12:44:48.734,,1325,817,1228
12:44:48.744,,1201,822,1203
12:44:48.754,,1065,629,1493
12:44:48.764,,917,259,1769
12:44:48.774,,832,-29,1998
12:44:48.784,,770,-281,1998
12:44:48.794,,748,-369,1998
12:44:48.804,,806,-267,1998
12:44:48.814,,871,8,1998
12:44:48.824,,890,481,1998
12:44:48.834,,624,727,1998
12:44:48.844,,262,1064,1998
12:44:48.854,,323,1496,1998
12:44:48.864,,613,1987,1998
12:44:48.874,,551,1997,1998
12:44:48.884,,118,1997,1796
12:44:48.894,,-518,1997,1249
12:44:48.904,,-959,1997,736
12:44:48.914,,-1326,1997,165
12:44:48.924,,-1674,1997,-482
12:44:48.934,,-1858,1997,-1179
12:44:48.944,,-1906,1997,-1742
12:44:48.954,,-1786,1974,-1974
12:44:48.964,,-1502,1694,-1997
12:44:48.974,,-1172,1503,-1997
12:44:48.984,,-1097,1591,-1997
12:44:48.994,,-841,1598,-1997
12:44:49.004,,-613,1486,-1972
12:44:49.014,,-513,1436,-1728
12:44:49.024,,-417,1483,-1474
12:44:49.177,,-590,1997,719
12:44:49.178,,-527,1997,903
12:44:49.180,,-527,1997,903
12:44:49.181,,-527,1997,903
12:44:49.183,,-527,1997,903
12:44:49.184,,-527,1997,903
12:44:49.185,,-527,1997,903
12:44:49.187,,-527,1997,903
12:44:49.188,,-304,1997,930
12:44:49.189,,-304,1997,930
12:44:49.191,,-304,1997,930
12:44:49.192,,-304,1997,930
12:44:49.193,,-304,1997,930
12:44:49.195,,-304,1997,930
12:44:49.196,,-304,1997,947
12:44:49.198,,-154,1997,947
12:44:49.199,,-154,1997,947
12:44:49.204,,-154,1997,947
12:44:49.214,,-54,1997,1046
12:44:49.224,,27,1997,1497
12:44:49.234,,141,1997,1887
12:44:49.244,,272,1997,1998
12:44:49.254,,621,1723,1998
12:44:49.264,,1085,866,1998
12:44:49.274,,1383,23,1998
12:44:49.284,,1326,-776,1998
12:44:49.294,,1041,-1306,1998
12:44:49.304,,1136,-1213,1998
12:44:49.314,,1403,-557,1998
12:44:49.324,,1427,189,1998
12:44:49.334,,1513,381,1858
12:44:49.344,,1625,657,1577
12:44:49.354,,1823,719,1716
12:44:49.364,,1636,492,1888
12:44:49.374,,1334,272,1998
12:44:49.384,,1036,-42,1998
12:44:49.394,,962,-239,1998
12:44:49.404,,1042,-95,1998
12:44:49.414,,1223,119,1998
12:44:49.424,,1372,298,1998
12:44:49.434,,1196,599,1998
12:44:49.444,,797,869,1998
12:44:49.454,,389,1073,1998
12:44:49.464,,134,1304,1998
12:44:49.474,,130,1782,1998
12:44:49.484,,83,1997,1990
12:44:49.494,,-484,1997,1748
12:44:49.504,,-931,1997,1527
12:44:49.514,,-1106,1997,1152
12:44:49.524,,-1334,1997,660
12:44:49.534,,-1597,1997,45
12:44:49.544,,-1837,1997,-791
12:44:49.554,,-1949,1997,-1456
12:44:49.564,,-1797,1952,-1955
12:44:49.574,,-1619,1629,-1997
12:44:49.584,,-1498,1362,-1997
12:44:49.594,,-1201,1176,-1997
12:44:49.604,,-677,1031,-1904
12:44:49.614,,-240,1023,-728
12:44:49.624,,-297,1194,-494
12:44:49.634,,-355,1522,-617
12:44:49.644,,-394,1730,-1091
12:44:49.654,,-448,1904,-1693
12:44:49.664,,-494,1996,-1996
12:44:49.674,,-562,1997,-1997
12:44:49.684,,-618,1997,-1997
12:44:49.694,,-643,1997,-1997
12:44:49.704,,-597,1997,-1997
12:44:49.714,,-476,1997,-1997
12:44:49.724,,-412,1997,-1997
12:44:49.734,,-342,1997,-1700
12:44:49.744,,-297,1997,-1164
12:44:49.754,,-295,1997,-909
12:44:49.764,,-331,1997,-631
12:44:49.774,,-452,1997,-300
12:44:49.784,,-600,1985,-143
12:44:49.794,,-720,1898,88
12:44:49.804,,-741,1856,274
12:44:49.814,,-772,1976,375
12:44:49.824,,-692,1997,358
12:44:49.834,,-531,1997,518
12:44:49.844,,-356,1997,808
12:44:49.854,,-241,1997,1059
12:44:49.864,,-195,1997,1512
12:44:49.874,,-3,1997,1878
12:44:49.884,,180,1991,1998
12:44:49.894,,466,1804,1998
12:44:49.904,,762,1485,1998
12:44:49.914,,1149,809,1998
12:44:49.924,,1622,116,1998
12:44:49.934,,1819,-285,1998
12:44:49.944,,1811,-515,1998
12:44:49.954,,1850,-202,1998
12:44:49.964,,1726,281,1998
12:44:49.974,,1458,643,1998
12:44:49.984,,1301,866,1998
12:44:49.994,,959,818,1989
12:44:50.004,,833,472,1998
12:44:50.014,,792,144,1998
12:44:50.024,,862,-15,1998
12:44:50.034,,991,-20,1998
12:44:50.044,,982,144,1998
12:44:50.054,,898,586,1998
12:44:50.064,,946,1098,1998
12:44:50.074,,887,1660,1998
12:44:50.084,,848,1997,1998
12:44:50.094,,794,1997,1998
12:44:50.104,,431,1997,1996
12:44:50.114,,1,1997,1644
12:44:50.124,,-819,1997,263
12:44:50.134,,-1235,1997,-196
12:44:50.144,,-1527,1937,-461
12:44:50.154,,-1745,1760,-792
12:44:50.164,,-1911,1703,-1328
12:44:50.174,,-1910,1731,-1874
12:44:50.184,,-1789,1482,-1997
12:44:50.194,,-1560,1219,-1997
12:44:50.204,,-1275,1087,-1997
12:44:50.214,,-937,976,-1997
12:44:50.224,,-599,783,-1761
12:44:50.234,,-371,595,-1181
12:44:50.244,,-176,374,-550
12:44:50.254,,54,220,-87
12:44:50.264,,8,267,-361
12:44:50.274,,-75,378,-732
12:44:50.284,,-155,475,-1031
12:44:50.294,,-171,411,-1118
12:44:50.304,,-115,379,-1056
12:44:50.314,,-95,434,-1108
12:44:50.324,,-89,545,-1167
12:44:50.334,,-71,681,-1304
12:44:50.344,,-45,793,-1474
12:44:50.354,,-11,931,-1621
12:44:50.364,,-38,1149,-1930
12:44:50.374,,-144,1349,-1997
12:44:50.384,,-249,1326,-1997
12:44:50.394,,-278,1343,-1997
12:44:50.404,,-281,1337,-1991
12:44:50.414,,-286,1341,-1792
12:44:50.424,,-323,1389,-1625
12:44:50.434,,-383,1446,-1508
12:44:50.444,,-455,1403,-1388
12:44:50.454,,-505,1374,-1263
12:44:50.464,,-582,1341,-1071
12:44:50.611,,-272,1835,547
12:44:50.613,,-272,1835,547
12:44:50.614,,-272,1835,547
12:44:50.615,,-242,1993,715
12:44:50.617,,-242,1993,715
12:44:50.618,,-242,1993,715
12:44:50.620,,-242,1993,715
12:44:50.621,,-242,1993,715
12:44:50.622,,-242,1993,715
12:44:50.624,,-242,1993,715
12:44:50.625,,-228,1997,971
12:44:50.626,,-228,1997,971
12:44:50.628,,-228,1997,971
12:44:50.629,,-228,1997,971
12:44:50.630,,-228,1997,971
12:44:50.632,,-228,1997,971
12:44:50.634,,-228,1997,1318
12:44:50.644,,-121,1997,1689
12:44:50.654,,42,1997,1975
12:44:50.664,,244,1997,1998
12:44:50.674,,510,1997,1998
12:44:50.684,,784,1759,1998
12:44:50.694,,942,1069,1998
12:44:50.704,,1088,443,1998
12:44:50.714,,1090,-187,1998
12:44:50.724,,1174,-358,1998
12:44:50.734,,1188,87,1998
12:44:50.744,,943,537,1998
12:44:50.754,,794,877,1953
12:44:50.764,,593,1274,1064
12:44:50.774,,508,1404,873
12:44:50.784,,478,1496,861
12:44:50.794,,441,1563,954
12:44:50.804,,457,1478,1085
12:44:50.814,,427,1318,1273
12:44:50.824,,377,1055,1461
12:44:50.834,,375,785,1641
12:44:50.844,,454,554,1852
12:44:50.854,,551,376,1998
12:44:50.864,,634,214,1998
12:44:50.874,,698,53,1998
12:44:50.884,,751,-4,1998
12:44:50.894,,695,102,1998
12:44:50.904,,668,337,1998
12:44:50.914,,678,640,1998
12:44:50.924,,612,920,1998
12:44:50.934,,474,1087,1998
12:44:50.944,,283,1136,1998
12:44:50.954,,108,1144,1998
12:44:50.964,,-139,1110,1998
12:44:50.974,,-320,1062,1998
12:44:50.984,,-196,1249,1998
12:44:50.994,,14,1705,1972
12:44:51.004,,0,1992,1636
12:44:51.014,,-140,1997,1178
12:44:51.024,,-683,1997,579
12:44:51.034,,-870,1958,276
12:44:51.044,,-1021,1675,64
12:44:51.054,,-1056,1405,-47
12:44:51.064,,-1020,1262,-45
12:44:51.074,,-1012,1245,-19
12:44:51.084,,-1043,1351,-236
12:44:51.094,,-1100,1553,-630
12:44:51.104,,-1164,1564,-1118
12:44:51.114,,-1125,1407,-1483
12:44:51.124,,-1071,1264,-1763
12:44:51.134,,-1034,1219,-1941
12:44:51.144,,-931,1200,-1629
12:44:51.154,,-483,987,-1271
12:44:51.164,,-306,979,-979
12:44:51.174,,-179,1043,-841
12:44:51.184,,-125,1159,-787
12:44:51.194,,-160,1319,-899
12:44:51.204,,-238,1523,-1133
12:44:51.214,,-352,1770,-1400
12:44:51.224,,-457,1971,-1652
12:44:51.234,,-525,1997,-1918
12:44:51.244,,-552,1997,-1997
12:44:51.254,,-539,1997,-1997
12:44:51.264,,-485,1997,-1997
12:44:51.274,,-414,1994,-1997
12:44:51.284,,-346,1778,-1981
12:44:51.294,,-302,1613,-1759
12:44:51.304,,-263,1512,-1516
12:44:51.314,,-244,1439,-1361
12:44:51.324,,-259,1347,-1256
12:44:51.334,,-273,1281,-1174
12:44:51.344,,-295,1228,-1038
12:44:51.354,,-311,1204,-959
12:44:51.364,,-314,1153,-948
12:44:51.374,,-321,1176,-991
12:44:51.384,,-379,1222,-941
12:44:51.394,,-432,1334,-893
12:44:51.404,,-493,1520,-427
12:44:51.414,,-629,1574,-45
12:44:51.424,,-659,1630,324
12:44:51.434,,-675,1692,639
12:44:51.444,,-679,1788,887
12:44:51.454,,-658,1931,1048
12:44:51.464,,-617,1997,1148
12:44:51.474,,-538,1997,1168
12:44:51.484,,-484,1997,1265
12:44:51.494,,-448,1997,1366
12:44:51.504,,-428,1997,1490
12:44:51.514,,-380,1997,1713
12:44:51.524,,-249,1997,1884
12:44:51.534,,57,1811,1998
12:44:51.544,,260,1521,1998
12:44:51.554,,565,1201,1998
12:44:51.564,,864,854,1998
12:44:51.574,,961,497,1998
12:44:51.584,,912,178,1998
12:44:51.594,,847,40,1998
12:44:51.604,,956,253,1998
12:44:51.614,,840,739,1998
12:44:51.624,,688,989,1946
12:44:51.634,,677,1088,1745
12:44:51.644,,838,1199,1747
12:44:51.654,,991,1215,1880
12:44:51.664,,1142,932,1998
12:44:51.674,,1112,732,1998
12:44:51.684,,1029,603,1998
12:44:51.694,,921,484,1998
12:44:51.704,,866,296,1998
12:44:51.714,,861,183,1998
12:44:51.724,,766,123,1998
12:44:51.734,,643,156,1998
12:44:51.744,,539,248,1998
12:44:51.754,,461,464,1998
12:44:51.764,,337,729,1998
12:44:51.774,,168,858,1955
12:44:51.784,,22,832,1995
12:44:51.794,,-61,852,1998
12:44:51.804,,72,1129,1998
12:44:51.814,,233,1558,1838
12:44:51.824,,240,1909,1268
12:44:51.834,,-13,1981,795
12:44:51.844,,-324,1797,491
12:44:51.854,,-545,1502,389
12:44:51.864,,-609,1213,304
12:44:51.874,,-595,1012,428
12:44:51.884,,-587,936,657
12:44:51.894,,-710,1026,469
12:44:51.904,,-946,1151,67
12:44:51.914,,-1105,1333,-1055
12:44:52.067,,-437,1666,-1997
12:44:52.068,,-437,1666,-1997
12:44:52.070,,-437,1666,-1997
12:44:52.071,,-437,1666,-1997
12:44:52.073,,-355,1569,-1997
12:44:52.074,,-355,1569,-1997
12:44:52.075,,-355,1569,-1997
12:44:52.077,,-355,1569,-1997
12:44:52.078,,-355,1569,-1997
12:44:52.079,,-355,1569,-1997
12:44:52.081,,-355,1569,-1997
12:44:52.082,,-269,1468,-1997
12:44:52.083,,-269,1468,-1997
12:44:52.085,,-269,1468,-1997
12:44:52.086,,-269,1468,-1997
12:44:52.088,,-269,1468,-1997
12:44:52.089,,-269,1468,-1997
12:44:52.094,,-200,1360,-1976
12:44:52.104,,-165,1234,-1826
12:44:52.114,,-139,1125,-1634
12:44:52.124,,-113,1044,-1490
12:44:52.134,,-79,986,-1385
12:44:52.144,,-108,905,-1309
12:44:52.154,,-170,851,-1217
12:44:52.164,,-199,777,-1098
12:44:52.174,,-226,691,-802
12:44:52.184,,-250,590,-664
12:44:52.194,,-277,536,-497
12:44:52.204,,-310,498,-322
12:44:52.214,,-319,433,-166
12:44:52.224,,-312,414,-12
12:44:52.234,,-318,403,158
12:44:52.244,,-252,405,265
12:44:52.254,,-185,488,328
12:44:52.264,,-152,663,329
12:44:52.274,,-132,759,301
12:44:52.284,,-110,847,367
12:44:52.294,,-97,944,563
12:44:52.304,,-111,1122,852
12:44:52.314,,-109,1168,995
12:44:52.324,,-125,1234,1230
12:44:52.334,,-162,1120,1491
12:44:52.344,,-180,1042,1812
12:44:52.354,,-30,864,1903
12:44:52.364,,213,662,1923
12:44:52.374,,462,563,1940
12:44:52.384,,666,509,1998
12:44:52.394,,812,358,1998
12:44:52.404,,929,197,1998
12:44:52.414,,968,126,1998
12:44:52.424,,947,109,1998
12:44:52.434,,851,124,1998
12:44:52.444,,817,231,1998
12:44:52.454,,805,384,1998
12:44:52.464,,812,563,1990
12:44:52.474,,832,710,1881
12:44:52.484,,844,779,1847
12:44:52.494,,846,744,1956
12:44:52.504,,887,620,1998
12:44:52.514,,942,475,1998
12:44:52.524,,998,317,1998
12:44:52.534,,1060,161,1998
12:44:52.544,,1064,113,1998
12:44:52.554,,973,161,1998
12:44:52.564,,731,309,1998
12:44:52.574,,576,361,1955
12:44:52.584,,405,349,1968
12:44:52.594,,206,238,1998
12:44:52.604,,163,125,1998
12:44:52.614,,136,98,1998
12:44:52.624,,17,108,1998
12:44:52.634,,58,293,1998
12:44:52.644,,247,779,1998
12:44:52.654,,406,1327,1812
12:44:52.664,,456,1710,1229
12:44:52.674,,193,1791,903
12:44:52.684,,-300,1533,969
12:44:52.694,,-622,961,990
12:44:52.704,,-468,809,997
12:44:52.714,,-408,925,735
12:44:52.724,,-520,1048,446
12:44:52.734,,-738,1191,-52
12:44:52.744,,-1070,1157,-507
12:44:52.754,,-1309,930,-887
12:44:52.764,,-1341,797,-1339
12:44:52.774,,-1330,713,-1680
12:44:52.784,,-1221,652,-1773
12:44:52.794,,-1021,633,-1619
12:44:52.804,,-759,716,-1343
12:44:52.814,,-435,896,-645
12:44:52.824,,-40,1071,-644
12:44:52.834,,24,1236,-863
12:44:52.844,,-37,1329,-1218
12:44:52.854,,-210,1387,-1466
12:44:52.864,,-416,1479,-1616
12:44:52.874,,-556,1609,-1796
12:44:52.884,,-627,1723,-1972
12:44:52.894,,-623,1792,-1997
12:44:52.904,,-567,1822,-1997
12:44:52.914,,-479,1827,-1997
12:44:52.924,,-423,1844,-1996
12:44:52.934,,-390,1827,-1924
12:44:52.944,,-354,1877,-1994
12:44:52.954,,-406,1868,-1997
12:44:52.964,,-486,1869,-1997
12:44:52.974,,-599,1978,-1997
12:44:52.984,,-747,1997,-1997
12:44:52.994,,-903,1997,-1996
12:44:53.004,,-1057,1997,-1883
12:44:53.014,,-1206,1997,-1423
12:44:53.024,,-1255,1997,-726
12:44:53.034,,-1269,1997,84
12:44:53.044,,-1282,1997,866
12:44:53.054,,-1245,1997,1376
12:44:53.064,,-1219,1997,1717
12:44:53.074,,-677,1997,1998
12:44:53.084,,-455,1997,1998
12:44:53.094,,-416,1997,1998
12:44:53.104,,-380,1997,1998
12:44:53.114,,-330,1997,1998
12:44:53.124,,-89,1997,1998
12:44:53.134,,424,1997,1998
12:44:53.144,,926,1515,1998
12:44:53.154,,953,-449,1998
12:44:53.164,,1134,-1182,1998
12:44:53.174,,1101,112,1998
12:44:53.184,,667,1180,1998
12:44:53.194,,422,1702,1846
12:44:53.204,,466,1994,603
12:44:53.214,,601,1912,763
12:44:53.224,,581,1720,982
12:44:53.234,,500,1424,1217
12:44:53.244,,474,970,1610
12:44:53.254,,413,465,1997
12:44:53.264,,440,-36,1998
12:44:53.274,,654,-299,1998
12:44:53.284,,733,-76,1998
12:44:53.294,,635,390,1998
12:44:53.304,,446,887,1998
12:44:53.314,,239,1473,1998
12:44:53.324,,36,1774,1998
12:44:53.334,,-537,1843,1998
12:44:53.344,,-337,1997,1998
12:44:53.354,,-3,1997,1998
12:44:53.489,,-331,1985,-1765
12:44:53.490,,-331,1985,-1765
12:44:53.492,,-117,1829,-1505
12:44:53.493,,-117,1829,-1505
12:44:53.494,,-117,1829,-1505
12:44:53.496,,-117,1829,-1505
12:44:53.497,,-117,1829,-1505
12:44:53.498,,-117,1829,-1505
12:44:53.500,,-117,1829,-1505
12:44:53.501,,-106,1650,-1585
12:44:53.503,,-106,1650,-1585
12:44:53.504,,-106,1650,-1585
12:44:53.505,,-106,1650,-1585
12:44:53.507,,-106,1650,-1585
12:44:53.508,,-106,1650,-1585
12:44:53.514,,-257,1740,-1955
12:44:53.524,,-445,1707,-1997
12:44:53.534,,-688,1783,-1997
12:44:53.544,,-925,1972,-1997
12:44:53.554,,-1111,1997,-1997
12:44:53.564,,-1201,1997,-1997
12:44:53.574,,-1198,1997,-1584
12:44:53.584,,-1055,1997,247
12:44:53.594,,-841,1997,1018
12:44:53.604,,-814,1997,1296
12:44:53.614,,-648,1997,1513
12:44:53.624,,-498,1997,1735
12:44:53.634,,-574,1997,1665
12:44:53.644,,-602,1997,1923
12:44:53.654,,-611,1997,1998
12:44:53.664,,-490,1997,1998
12:44:53.674,,-287,1997,1998
12:44:53.684,,-110,1997,1998
12:44:53.694,,248,1655,1998
12:44:53.704,,882,-108,1998
12:44:53.714,,1139,-1696,1998
12:44:53.724,,1065,-194,1998
12:44:53.734,,881,755,1998
12:44:53.744,,651,1359,1413
12:44:53.754,,686,1627,580
12:44:53.764,,936,1732,582
12:44:53.774,,1136,1559,766
12:44:53.784,,1220,1173,955
12:44:53.794,,1073,538,1586
12:44:53.804,,935,-147,1998
12:44:53.814,,909,-648,1998
12:44:53.824,,835,-623,1998
12:44:53.834,,640,-288,1998
12:44:53.844,,574,215,1998
12:44:53.854,,670,566,1998
12:44:53.864,,667,871,1998
12:44:53.874,,363,947,1998
12:44:53.884,,161,1147,1998
12:44:53.894,,100,1704,1998
12:44:53.904,,138,1997,1998
12:44:53.914,,135,1997,1998
12:44:53.924,,-175,1997,1909
12:44:53.934,,-626,1997,1380
12:44:53.944,,-1058,1997,968
12:44:53.954,,-1304,1997,739
12:44:53.964,,-1529,1997,309
12:44:53.974,,-1998,1997,-1128
12:44:53.984,,-1998,1997,-1937
12:44:53.994,,-1998,1997,-1997
12:44:54.004,,-1998,1997,-1997
12:44:54.014,,-1990,1997,-1997
12:44:54.024,,-1569,1988,-1997
12:44:54.034,,-904,1787,-1997
12:44:54.044,,-455,1615,-1686
12:44:54.054,,-232,1487,-1123
12:44:54.064,,-141,1367,-872
12:44:54.074,,-103,1268,-826
12:44:54.084,,-143,1224,-960
12:44:54.094,,-260,1271,-1794
12:44:54.104,,-446,1254,-1997
12:44:54.114,,-516,1331,-1997
12:44:54.124,,-602,1499,-1997
12:44:54.134,,-603,1678,-1997
12:44:54.144,,-486,1877,-1997
12:44:54.153,,-427,1997,-1736
12:44:54.164,,-507,1997,-867
12:44:54.174,,-650,1997,-43
12:44:54.183,,-786,1997,715
12:44:54.194,,-946,1997,1338
12:44:54.204,,-1017,1997,1817
12:44:54.213,,-701,1997,1962
12:44:54.224,,-457,1997,1993
12:44:54.234,,-505,1997,1998
12:44:54.243,,-530,1997,1998
12:44:54.254,,-395,1997,1998
12:44:54.264,,-59,1997,1998
12:44:54.273,,362,1515,1998
12:44:54.284,,787,2,1998
12:44:54.293,,756,-1625,1998
12:44:54.303,,898,-1811,1998
12:44:54.314,,1087,-832,1998
12:44:54.323,,894,247,1998
12:44:54.333,,647,1038,1867
12:44:54.344,,526,1421,907
12:44:54.353,,710,1547,390
12:44:54.363,,818,1331,559
12:44:54.374,,778,1048,642
12:44:54.383,,624,758,759
12:44:54.393,,425,379,1076
12:44:54.404,,328,-39,1550
12:44:54.413,,336,-470,1983
12:44:54.423,,538,-770,1998
12:44:54.434,,705,-916,1998
12:44:54.443,,841,-844,1998
12:44:54.453,,850,-525,1998
12:44:54.463,,801,67,1998
12:44:54.473,,663,523,1998
12:44:54.483,,156,614,1998
12:44:54.493,,120,864,1998
12:44:54.503,,292,1259,1998
12:44:54.513,,451,1734,1998
12:44:54.523,,464,1994,1998
12:44:54.533,,169,1997,1677
12:44:54.543,,-350,1997,1010
12:44:54.553,,-772,1997,279
12:44:54.563,,-1015,1997,-363
12:44:54.573,,-1139,1975,-855
12:44:54.583,,-1218,1696,-1230
12:44:54.593,,-1300,1514,-1471
12:44:54.603,,-1347,1451,-1786
12:44:54.613,,-1165,1242,-1997
12:44:54.623,,-1066,1166,-1997
12:44:54.633,,-920,1091,-1997
12:44:54.643,,-686,1021,-1997
12:44:54.653,,-403,866,-1997
12:44:54.663,,-177,700,-1788
12:44:54.673,,6,610,-1359
12:44:54.683,,136,533,-1108
12:44:54.693,,239,433,-974
12:44:54.703,,301,364,-960
12:44:54.713,,315,324,-1036
12:44:54.723,,270,341,-1259
12:44:54.733,,207,461,-1555
12:44:54.743,,101,354,-1918
12:44:54.753,,94,358,-1996
12:44:54.763,,91,424,-1923
12:44:54.773,,93,419,-1658
12:44:54.927,,-103,711,599
12:44:54.928,,-103,711,599
12:44:54.930,,-198,764,703
12:44:54.931,,-198,764,703
12:44:54.932,,-198,764,703
12:44:54.934,,-198,764,703
12:44:54.935,,-198,764,703
12:44:54.936,,-198,764,703
12:44:54.938,,-198,822,820
12:44:54.939,,-246,822,820
12:44:54.941,,-246,822,820
12:44:54.942,,-246,822,820
12:44:54.943,,-246,822,820
12:44:54.945,,-246,822,820
12:44:54.946,,-246,822,820
12:44:54.947,,-230,852,937
12:44:54.949,,-230,852,937
12:44:54.953,,-230,852,937
12:44:54.963,,-189,949,1115
12:44:54.973,,-80,910,1217
12:44:54.983,,108,707,1360
12:44:54.993,,287,457,1914
12:44:55.003,,491,316,1998
12:44:55.013,,562,192,1998
12:44:55.023,,629,28,1998
12:44:55.033,,783,115,1998
12:44:55.043,,842,133,1998
12:44:55.053,,979,-28,1998
12:44:55.063,,1056,-95,1998
12:44:55.073,,1118,88,1998
12:44:55.083,,1183,334,1998
12:44:55.093,,1245,523,1998
12:44:55.103,,1251,669,1896
12:44:55.113,,1211,718,1661
12:44:55.123,,926,536,1784
12:44:55.133,,821,255,1976
12:44:55.143,,777,-50,1998
12:44:55.153,,742,-284,1998
12:44:55.163,,724,-305,1998
12:44:55.173,,729,-127,1998
12:44:55.183,,720,86,1998
12:44:55.193,,690,250,1998
12:44:55.203,,575,418,1998
12:44:55.213,,533,683,1998
12:44:55.223,,399,1046,1998
12:44:55.233,,234,1398,1998
12:44:55.243,,291,1641,1998
12:44:55.253,,277,1997,1752
12:44:55.263,,-42,1997,1343
12:44:55.273,,-456,1997,809
12:44:55.283,,-818,1874,499
12:44:55.293,,-1020,1539,376
12:44:55.303,,-1098,1301,147
12:44:55.313,,-1268,1195,-217
12:44:55.323,,-1480,1192,-576
12:44:55.333,,-1595,1258,-1070
12:44:55.343,,-1584,1231,-1588
12:44:55.353,,-1425,1101,-1984
12:44:55.363,,-1253,935,-1997
12:44:55.373,,-1125,801,-1997
12:44:55.383,,-575,709,-1728
12:44:55.393,,-279,628,-1387
12:44:55.403,,-96,637,-1156
12:44:55.413,,-32,663,-1035
12:44:55.423,,-43,698,-1030
12:44:55.433,,-97,723,-1076
12:44:55.443,,-149,752,-1172
12:44:55.453,,-213,796,-1319
12:44:55.463,,-275,826,-1470
12:44:55.473,,-323,831,-1618
12:44:55.483,,-339,848,-1783
12:44:55.493,,-361,864,-1937
12:44:55.503,,-375,866,-1948
12:44:55.513,,-297,798,-1855
12:44:55.523,,-241,775,-1715
12:44:55.533,,-172,748,-1544
12:44:55.543,,-126,751,-1378
12:44:55.553,,-119,769,-1286
12:44:55.563,,-135,786,-1283
12:44:55.573,,-174,812,-1228
12:44:55.583,,-247,787,-1108
12:44:55.593,,-305,780,-947
12:44:55.603,,-351,803,-787
12:44:55.613,,-409,817,-583
12:44:55.623,,-475,842,-364
12:44:55.633,,-491,807,10
12:44:55.643,,-443,897,201
12:44:55.653,,-379,1045,171
12:44:55.663,,-277,1196,150
12:44:55.673,,-208,1511,303
12:44:55.683,,-147,1722,424
12:44:55.693,,-88,1945,627
12:44:55.703,,-12,1997,836
12:44:55.713,,38,1997,1110
12:44:55.723,,115,1997,1560
12:44:55.733,,277,1997,1970
12:44:55.743,,477,1997,1998
12:44:55.753,,687,1997,1998
12:44:55.763,,837,1597,1998
12:44:55.773,,1005,1439,1998
12:44:55.783,,984,1223,1998
12:44:55.793,,936,962,1998
12:44:55.803,,842,478,1998
12:44:55.813,,847,161,1998
12:44:55.823,,1058,287,1998
12:44:55.833,,1010,531,1998
12:44:55.843,,877,818,1998
12:44:55.853,,746,1167,1998
12:44:55.863,,647,1459,1969
12:44:55.873,,629,1624,1813
12:44:55.883,,697,1692,1817
12:44:55.893,,757,1395,1787
12:44:55.903,,740,1308,1822
12:44:55.913,,656,1075,1781
12:44:55.923,,558,902,1783
12:44:55.933,,509,752,1789
12:44:55.943,,478,575,1921
12:44:55.953,,510,388,1998
12:44:55.963,,523,202,1998
12:44:55.973,,520,-28,1998
12:44:55.983,,604,-61,1998
12:44:55.993,,652,170,1998
12:44:56.003,,544,593,1998
12:44:56.013,,370,1186,1998
12:44:56.023,,-169,1997,1998
12:44:56.033,,-526,1997,1998
12:44:56.043,,-585,1997,1998
12:44:56.053,,-510,1997,1937
12:44:56.063,,-458,1997,1566
12:44:56.073,,-509,1997,1037
12:44:56.083,,-635,1997,616
12:44:56.093,,-722,1997,264
12:44:56.103,,-817,1921,156
12:44:56.113,,-854,1772,57
12:44:56.123,,-874,1702,-190
12:44:56.133,,-952,1711,-427
12:44:56.143,,-1006,1783,-770
12:44:56.153,,-1092,1579,-1570
12:44:56.163,,-1060,1380,-1675
12:44:56.173,,-1067,1313,-1682
12:44:56.183,,-1058,1342,-1830
12:44:56.193,,-1060,1375,-1861
12:44:56.203,,-987,1414,-1904
12:44:56.213,,-889,1422,-1976
12:44:56.223,,-809,1395,-1933
12:44:56.233,,-753,1348,-1803
12:44:56.381,,-1072,1316,-729
12:44:56.382,,-1072,1316,-729
12:44:56.383,,-1072,1316,-729
12:44:56.385,,-1072,1316,-566
12:44:56.386,,-1088,1418,-566
12:44:56.387,,-1088,1418,-566
12:44:56.389,,-1088,1418,-566
12:44:56.390,,-1088,1418,-566
12:44:56.391,,-1088,1418,-566
12:44:56.393,,-1088,1418,-566
12:44:56.394,,-1062,1554,-347
12:44:56.396,,-1062,1554,-347
12:44:56.397,,-1062,1554,-347
12:44:56.398,,-1062,1554,-347
12:44:56.400,,-1062,1554,-347
12:44:56.401,,-1062,1554,-347
12:44:56.403,,-1062,1852,16
12:44:56.413,,-614,1997,392
12:44:56.423,,-255,1997,641
12:44:56.433,,117,1997,961
12:44:56.443,,423,1997,1566
12:44:56.453,,510,1997,1998
12:44:56.463,,325,1997,1998
12:44:56.473,,6,1997,1998
12:44:56.483,,-232,1997,1998
12:44:56.493,,-38,1980,1998
12:44:56.503,,314,1742,1998
12:44:56.513,,553,1787,1998
12:44:56.523,,688,1761,1998
12:44:56.533,,1129,1200,1998
12:44:56.543,,1247,1124,1998
12:44:56.553,,1152,1124,1998
12:44:56.563,,1066,1216,1998
12:44:56.573,,954,1381,1998
12:44:56.583,,783,1530,1970
12:44:56.593,,591,1546,1893
12:44:56.603,,449,1500,1913
12:44:56.613,,398,1500,1996
12:44:56.623,,340,1430,1998
12:44:56.633,,234,1212,1998
12:44:56.643,,131,1038,1998
12:44:56.653,,92,879,1998
12:44:56.663,,149,742,1998
12:44:56.673,,175,714,1998
12:44:56.683,,230,728,1998
12:44:56.693,,276,684,1998
12:44:56.703,,358,668,1998
12:44:56.713,,403,781,1998
12:44:56.723,,370,929,1998
12:44:56.733,,295,1046,1998
12:44:56.743,,174,1049,1998
12:44:56.753,,110,1067,1998
12:44:56.763,,-6,1101,1998
12:44:56.773,,-121,1176,1998
12:44:56.783,,-159,1491,1998
12:44:56.793,,-200,1997,1998
12:44:56.803,,-326,1997,1900
12:44:56.813,,-548,1997,1458
12:44:56.823,,-797,1997,1069
12:44:56.833,,-998,1997,822
12:44:56.843,,-995,1997,605
12:44:56.853,,-873,1976,500
12:44:56.863,,-790,1843,326
12:44:56.873,,-772,1843,23
12:44:56.883,,-822,1915,-305
12:44:56.893,,-872,1865,-638
12:44:56.903,,-874,1756,-835
12:44:56.913,,-876,1593,-1073
12:44:56.923,,-915,1378,-1317
12:44:56.933,,-816,1396,-1509
12:44:56.943,,-698,1410,-1739
12:44:56.953,,-595,1375,-1886
12:44:56.963,,-529,1329,-1914
12:44:56.973,,-467,1293,-1864
12:44:56.983,,-427,1240,-1723
12:44:56.993,,-395,1171,-1483
12:44:57.003,,-401,1171,-1334
12:44:57.013,,-416,1192,-1306
12:44:57.023,,-433,1221,-1359
12:44:57.033,,-445,1240,-1439
12:44:57.043,,-519,1253,-1670
12:44:57.053,,-709,1284,-1883
12:44:57.063,,-814,1387,-1997
12:44:57.073,,-911,1462,-1997
12:44:57.083,,-915,1472,-1997
12:44:57.093,,-859,1530,-1997
12:44:57.103,,-802,1540,-1910
12:44:57.113,,-760,1543,-1625
12:44:57.123,,-761,1599,-1342
12:44:57.133,,-796,1647,-1119
12:44:57.143,,-866,1715,-987
12:44:57.153,,-1048,1769,-892
12:44:57.163,,-1231,1838,-748
12:44:57.173,,-1410,1997,-73
12:44:57.183,,-1552,1997,422
12:44:57.193,,-1539,1997,844
12:44:57.203,,-1616,1997,1278
12:44:57.213,,-1781,1997,1878
12:44:57.223,,-1676,1997,1998
12:44:57.233,,-1378,1997,1998
12:44:57.243,,-1112,1997,1998
12:44:57.253,,-725,1997,1998
12:44:57.263,,-204,1997,1998
12:44:57.273,,115,1997,1998
12:44:57.283,,161,1997,1998
12:44:57.293,,263,1997,1925
12:44:57.303,,1570,1997,1787
12:44:57.313,,1990,1997,1998
12:44:57.323,,1997,1909,1998
12:44:57.333,,1878,1758,1998
12:44:57.343,,1469,1816,1998
12:44:57.353,,1030,1956,1998
12:44:57.363,,724,1997,1927
12:44:57.373,,622,1997,1856
12:44:57.383,,752,1997,1895
12:44:57.393,,1057,1997,1977
12:44:57.403,,1392,1997,1998
12:44:57.413,,1648,1997,1998
12:44:57.423,,1800,1997,1998
12:44:57.433,,1671,1574,1998
12:44:57.443,,1702,1599,1998
12:44:57.453,,1670,1493,1998
12:44:57.463,,1543,1548,1998
12:44:57.473,,1352,1700,1998
12:44:57.483,,1110,1886,1998
12:44:57.493,,846,1996,1998
12:44:57.503,,618,1997,1998
12:44:57.513,,457,1997,1985
12:44:57.523,,329,1988,1934
12:44:57.533,,241,1976,1835
12:44:57.543,,124,1946,1763
12:44:57.553,,-12,1863,1803
12:44:57.563,,99,1547,1994
12:44:57.573,,137,1412,1998
12:44:57.583,,277,1316,1998
12:44:57.593,,475,1481,1998
12:44:57.603,,473,1920,1998
12:44:57.613,,233,1997,1871
12:44:57.623,,2,1997,1624
12:44:57.633,,-103,1997,1446
12:44:57.643,,-96,1997,1396
12:44:57.653,,26,1997,1320
12:44:57.806,,-573,850,-655
12:44:57.807,,-573,850,-655
12:44:57.808,,-573,850,-655
12:44:57.810,,-573,850,-655
12:44:57.811,,-573,850,-655
12:44:57.813,,-573,850,-655
12:44:57.814,,-705,814,-632
12:44:57.815,,-705,814,-632
12:44:57.817,,-705,814,-632
12:44:57.818,,-705,814,-632
12:44:57.819,,-705,814,-632
12:44:57.821,,-705,814,-632
12:44:57.822,,-705,814,-632
12:44:57.823,,-915,788,-717
12:44:57.825,,-915,788,-717
12:44:57.826,,-915,788,-717
12:44:57.828,,-915,788,-717
12:44:57.833,,-1161,785,-798
12:44:57.843,,-1381,727,-799
12:44:57.853,,-1499,680,-838
12:44:57.863,,-1511,742,-891
12:44:57.873,,-1457,874,-943
12:44:57.883,,-1429,995,-1025
12:44:57.893,,-1427,1113,-1137
12:44:57.903,,-1401,1228,-1176
12:44:57.913,,-1325,1218,-1131
12:44:57.923,,-1225,1354,-998
12:44:57.933,,-1078,1613,-789
12:44:57.943,,-830,1975,-648
12:44:57.953,,-409,1997,-537
12:44:57.963,,-250,1997,-201
12:44:57.973,,-1,1997,195
12:44:57.983,,311,1997,765
12:44:57.993,,589,1997,1561
12:44:58.003,,1173,1997,1997
12:44:58.013,,1819,1997,1998
12:44:58.023,,1997,1997,1998
12:44:58.033,,1997,1997,1998
12:44:58.043,,1997,1997,1998
12:44:58.053,,1952,1987,1998
12:44:58.063,,1347,1775,1998
12:44:58.073,,700,1040,1998
12:44:58.083,,845,609,1998
12:44:58.093,,875,312,1998
12:44:58.103,,791,-16,1998
12:44:58.113,,726,-69,1998
12:44:58.123,,693,175,1998
12:44:58.133,,673,563,1998
12:44:58.143,,657,933,1998
12:44:58.153,,750,1280,1998
12:44:58.163,,953,1482,1892
12:44:58.173,,1153,1533,1727
12:44:58.183,,1331,1450,1597
12:44:58.193,,1373,1287,1442
12:44:58.203,,1068,818,1747
12:44:58.213,,891,388,1975
12:44:58.223,,953,11,1998
12:44:58.233,,1000,-74,1998
12:44:58.243,,928,-15,1998
12:44:58.253,,822,70,1998
12:44:58.263,,741,271,1998
12:44:58.273,,595,652,1998
12:44:58.283,,368,929,1998
12:44:58.293,,160,1268,1998
12:44:58.303,,-72,1703,1973
12:44:58.313,,-368,1993,1666
12:44:58.323,,-624,1997,1249
12:44:58.333,,-934,1997,497
12:44:58.343,,-1014,1923,147
12:44:58.353,,-1010,1680,-173
12:44:58.363,,-991,1526,-488
12:44:58.373,,-1046,1431,-826
12:44:58.383,,-1216,1346,-1210
12:44:58.393,,-1423,1273,-1631
12:44:58.403,,-1649,1190,-1971
12:44:58.413,,-1801,1085,-1997
12:44:58.423,,-1873,1071,-1997
12:44:58.433,,-1852,1024,-1997
12:44:58.443,,-1641,937,-1997
12:44:58.453,,-1333,867,-1994
12:44:58.463,,-841,937,-1775
12:44:58.473,,-653,922,-1504
12:44:58.483,,-487,890,-1360
12:44:58.493,,-408,924,-1279
12:44:58.503,,-364,953,-1173
12:44:58.513,,-393,1038,-1019
12:44:58.523,,-462,1053,-825
12:44:58.533,,-574,1327,-461
12:44:58.543,,-711,1818,146
12:44:58.553,,-859,1995,879
12:44:58.563,,-887,1997,1714
12:44:58.573,,-484,1997,1998
12:44:58.583,,314,1997,1998
12:44:58.593,,1432,1997,1998
12:44:58.603,,1901,1997,1998
12:44:58.613,,1870,1997,1998
12:44:58.623,,1298,1997,1998
12:44:58.633,,867,1997,1998
12:44:58.643,,564,1779,1998
12:44:58.653,,614,1094,1998
12:44:58.663,,422,313,1998
12:44:58.673,,250,-779,1998
12:44:58.683,,335,-1312,1998
12:44:58.693,,238,-1096,1998
12:44:58.703,,212,-394,1998
12:44:58.713,,79,1039,1998
12:44:58.723,,61,1494,1812
12:44:58.733,,123,1724,1298
12:44:58.743,,132,1715,998
12:44:58.753,,205,1526,741
12:44:58.763,,396,1325,561
12:44:58.773,,511,1066,627
12:44:58.783,,547,722,752
12:44:58.793,,529,287,1034
12:44:58.803,,506,-163,1508
12:44:58.813,,602,-537,1915
12:44:58.823,,786,-637,1998
12:44:58.833,,837,-550,1998
12:44:58.843,,760,-192,1903
12:44:58.853,,724,-12,1761
12:44:58.863,,684,220,1546
12:44:58.873,,625,514,1432
12:44:58.883,,461,822,1262
12:44:58.893,,236,1098,1017
12:44:58.903,,-63,1285,885
12:44:58.913,,-335,1403,676
12:44:58.923,,-518,1440,362
12:44:58.933,,-628,1437,147
12:44:58.943,,-704,1402,-46
12:44:58.953,,-724,1322,-267
12:44:58.963,,-734,1223,-502
12:44:58.973,,-796,1067,-919
12:44:58.983,,-812,1037,-1199
12:44:58.993,,-1108,889,-1253
12:44:59.003,,-1215,956,-1600
12:44:59.013,,-1398,950,-1928
12:44:59.023,,-1612,873,-1997
12:44:59.033,,-1685,776,-1997
12:44:59.043,,-1627,746,-1997
12:44:59.053,,-1481,788,-1997
12:44:59.063,,-1283,798,-1997
12:44:59.073,,-1078,835,-1997
12:44:59.083,,-905,874,-1987
12:44:59.093,,-763,926,-1825
12:44:59.241,,368,1669,1998
12:44:59.242,,142,1612,1998
12:44:59.243,,142,1612,1998
12:44:59.245,,142,1612,1998
12:44:59.246,,142,1612,1998
12:44:59.248,,142,1612,1998
12:44:59.249,,142,1612,1998
12:44:59.250,,142,1612,1998
12:44:59.252,,118,1405,1998
12:44:59.253,,118,1405,1998
12:44:59.254,,118,1405,1998
12:44:59.256,,118,1405,1998
12:44:59.257,,118,1405,1998
12:44:59.259,,118,1405,1998
12:44:59.260,,118,1405,1998
12:44:59.261,,243,1017,1998
12:44:59.263,,243,1017,1998
12:44:59.273,,608,402,1998
12:44:59.283,,811,-386,1998
12:44:59.293,,871,-897,1998
12:44:59.303,,796,-1165,1998
12:44:59.313,,607,-934,1998
12:44:59.323,,503,-462,1998
12:44:59.333,,490,-3,1998
12:44:59.343,,504,480,1998
12:44:59.353,,518,1073,1435
12:44:59.363,,489,1002,1091
12:44:59.373,,444,773,948
12:44:59.383,,354,523,1009
12:44:59.393,,288,193,1257
12:44:59.403,,303,-184,1560
12:44:59.413,,298,-446,1909
12:44:59.423,,302,-524,1998
12:44:59.433,,401,-463,1998
12:44:59.443,,385,-98,1998
12:44:59.453,,306,539,1998
12:44:59.463,,337,1264,1997
12:44:59.473,,361,1859,1700
12:44:59.483,,455,1997,703
12:44:59.493,,525,1997,125
12:44:59.503,,631,1997,-417
12:44:59.513,,816,1863,-892
12:44:59.523,,1041,1646,-1326
12:44:59.533,,1248,1416,-1657
12:44:59.543,,1427,1151,-1818
12:44:59.553,,1475,899,-1830
12:44:59.563,,1405,731,-1789
12:44:59.573,,1396,657,-1695
12:44:59.583,,1317,598,-1545
12:44:59.593,,1107,536,-1376
12:44:59.603,,897,556,-1337
12:44:59.613,,558,617,-1316
12:44:59.623,,418,606,-1238
12:44:59.633,,401,571,-1147
12:44:59.643,,462,617,-1007
12:44:59.653,,569,679,-829
12:44:59.663,,654,657,-457
12:44:59.673,,666,510,74
12:44:59.683,,664,450,598
12:44:59.693,,495,529,980
12:44:59.703,,265,679,1043
12:44:59.713,,2,888,849
12:44:59.723,,-236,1107,583
12:44:59.733,,-381,1287,390
12:44:59.743,,-495,1299,202
12:44:59.753,,-637,1219,246
12:44:59.763,,-667,1098,332
12:44:59.773,,-752,999,245
12:44:59.783,,-912,979,36
12:44:59.793,,-960,995,-156
12:44:59.803,,-934,1000,-244
12:44:59.813,,-874,1008,-171
12:44:59.823,,-698,1018,-54
12:44:59.833,,-559,1080,131
12:44:59.843,,-581,1167,302
12:44:59.853,,-691,1270,385
12:44:59.863,,-868,1366,236
12:44:59.873,,-1037,1342,19
12:44:59.883,,-1033,1245,-70
12:44:59.893,,-1089,1228,110
12:44:59.903,,-1243,1309,335
12:44:59.913,,-1583,1605,460
12:44:59.923,,-1983,1949,419
12:44:59.933,,-1998,1997,241
12:44:59.943,,-1998,1997,-87
12:44:59.953,,-1998,1997,-495
12:44:59.963,,-1998,1997,-795
12:44:59.973,,-1998,1997,-951
12:44:59.983,,-1998,1997,-1044
12:44:59.993,,-1998,1997,-1029
12:45:00.003,,-1998,1997,-774
12:45:00.013,,-1998,1997,-507
12:45:00.023,,-1998,1997,-250
12:45:00.033,,-1998,1997,46
12:45:00.043,,-1998,1997,259
12:45:00.053,,-1998,1997,431
12:45:00.063,,-1998,1997,558
12:45:00.073,,-1998,1997,580
12:45:00.083,,-1998,1997,561
12:45:00.093,,-1998,1997,588
12:45:00.103,,-1933,1995,578
12:45:00.113,,-1787,1995,539
12:45:00.123,,-1648,1997,514
12:45:00.133,,-1294,1995,547
12:45:00.143,,-1135,1997,593
12:45:00.153,,-953,1997,623
12:45:00.163,,-773,1997,646
12:45:00.173,,-613,1997,657
12:45:00.183,,-462,1997,656
12:45:00.193,,-342,1997,665
12:45:00.203,,-216,1962,633
12:45:00.213,,-113,1904,560
12:45:00.223,,-55,1871,480
12:45:00.233,,12,1838,398
12:45:00.243,,68,1748,319
12:45:00.253,,143,1463,266
12:45:00.263,,182,1389,241
12:45:00.273,,183,1363,193
12:45:00.283,,157,1333,154
12:45:00.293,,113,1223,58
12:45:00.303,,60,1164,31
12:45:00.313,,37,1105,56
12:45:00.323,,11,1054,52
12:45:00.333,,2,1021,82
12:45:00.343,,-16,1012,100
12:45:00.353,,-10,1023,113
12:45:00.363,,10,1051,102
12:45:00.373,,94,1079,84
12:45:00.383,,302,1205,142
12:45:00.393,,324,1230,207
12:45:00.403,,296,1252,279
12:45:00.413,,466,1304,255
12:45:00.423,,768,1447,85
12:45:00.433,,1018,1672,-212
12:45:00.443,,1054,1918,-519
12:45:00.453,,1089,1997,-995
12:45:00.463,,1312,1997,-1465
12:45:00.473,,1628,1997,-1803
12:45:00.483,,1874,1997,-1984
12:45:00.493,,1997,1997,-1997
12:45:00.503,,1997,1997,-1997
12:45:00.513,,1984,1997,-1997
12:45:00.523,,1809,1997,-1997
12:45:00.533,,1666,1997,-1997
12:45:00.543,,1630,1997,-1997
12:45:00.553,,1655,1997,-1994
12:45:00.707,,608,893,329
12:45:00.708,,589,877,321
12:45:00.710,,589,877,321
12:45:00.711,,589,877,321
12:45:00.712,,589,877,321
12:45:00.714,,589,877,321
12:45:00.715,,589,877,321
12:45:00.716,,589,877,409
12:45:00.718,,485,893,409
12:45:00.719,,485,893,409
12:45:00.720,,485,893,409
12:45:00.722,,485,893,409
12:45:00.723,,485,893,409
12:45:00.725,,485,893,409
12:45:00.726,,296,845,515
12:45:00.727,,296,845,515
12:45:00.729,,296,845,515
12:45:00.733,,296,845,515
12:45:00.743,,58,757,651
12:45:00.753,,-126,632,714
12:45:00.763,,-242,531,453
12:45:00.773,,-292,578,245
12:45:00.783,,-288,615,58
12:45:00.793,,-271,631,-22
12:45:00.803,,-257,629,-24
12:45:00.813,,-246,625,8
12:45:00.823,,-274,638,34
12:45:00.833,,-324,639,73
12:45:00.843,,-331,646,132
12:45:00.853,,-290,696,182
12:45:00.863,,-242,747,135
12:45:00.873,,-201,813,104
12:45:00.883,,-98,845,17
12:45:00.893,,-50,1057,-91
12:45:00.903,,-131,1134,-62
12:45:00.913,,-207,1150,31
12:45:00.923,,-232,1169,109
12:45:00.933,,-302,1190,137
12:45:00.943,,-392,1234,193
12:45:00.953,,-430,1228,282
12:45:00.963,,-441,1271,396
12:45:00.973,,-444,1375,508
12:45:00.983,,-425,1511,590
12:45:00.993,,-465,1661,685
12:45:01.003,,-604,1783,883
12:45:01.013,,-823,1720,1184
12:45:01.023,,-1085,1528,1257
12:45:01.033,,-1225,1614,1111
12:45:01.043,,-1394,1756,1076
12:45:01.053,,-1580,1903,1235
12:45:01.063,,-1812,1994,1636
12:45:01.073,,-1989,1958,1977
12:45:01.083,,-1998,1990,1950
12:45:01.093,,-1998,1997,1574
12:45:01.103,,-1998,1997,979
12:45:01.113,,-1998,1997,296
12:45:01.123,,-1998,1997,-305
12:45:01.133,,-1998,1997,-604
12:45:01.143,,-1998,1997,-462
12:45:01.153,,-1998,1997,140
12:45:01.163,,-1998,1997,553
12:45:01.173,,-1998,1997,815
12:45:01.183,,-1998,1997,845
12:45:01.193,,-1998,1997,710
12:45:01.203,,-1998,1997,499
12:45:01.213,,-1998,1995,456
12:45:01.223,,-1998,1891,626
12:45:01.233,,-1998,1781,849
12:45:01.243,,-1998,1702,1085
12:45:01.253,,-1998,1629,1332
12:45:01.263,,-1998,1588,1486
12:45:01.273,,-1998,1547,1496
12:45:01.283,,-1998,1551,1381
12:45:01.293,,-1998,1600,1299
12:45:01.303,,-1996,1667,1304
12:45:01.313,,-1865,1722,1379
12:45:01.323,,-1652,1771,1453
12:45:01.333,,-1396,1815,1499
12:45:01.343,,-1165,1825,1523
12:45:01.353,,-958,1786,1519
12:45:01.363,,-801,1738,1539
12:45:01.373,,-675,1701,1463
12:45:01.383,,-565,1657,1313
12:45:01.393,,-435,1549,1172
12:45:01.403,,-320,1457,892
12:45:01.413,,-127,1327,779
12:45:01.423,,-78,1263,668
12:45:01.433,,-9,1196,624
12:45:01.443,,95,1082,576
12:45:01.453,,184,953,559
12:45:01.463,,228,829,491
12:45:01.473,,233,704,396
12:45:01.483,,226,619,342
12:45:01.493,,215,568,263
12:45:01.503,,190,518,214
12:45:01.513,,139,437,243
12:45:01.523,,107,409,303
12:45:01.533,,78,395,272
12:45:01.543,,2,380,268
12:45:01.553,,-48,359,249
12:45:01.563,,-27,374,191
12:45:01.573,,15,438,107
12:45:01.583,,64,496,32
12:45:01.593,,79,550,28
12:45:01.603,,-2,575,8
12:45:01.613,,-45,608,-14
12:45:01.623,,-84,632,31
12:45:01.633,,-183,651,113
12:45:01.643,,-247,707,212
12:45:01.653,,-204,807,230
12:45:01.663,,-150,1145,191
12:45:01.673,,-65,1329,26
12:45:01.683,,128,1554,-158
12:45:01.693,,358,1760,-346
12:45:01.703,,573,1967,-559
12:45:01.713,,785,1997,-814
12:45:01.723,,1039,1997,-1062
12:45:01.733,,1443,1997,-1432
12:45:01.743,,1773,1997,-1827
12:45:01.753,,1845,1997,-1997
12:45:01.763,,1776,1997,-1997
12:45:01.773,,1702,1997,-1997
12:45:01.783,,1614,1997,-1997
12:45:01.793,,1497,1997,-1997
12:45:01.803,,1478,1997,-1991
12:45:01.813,,1497,1997,-1767
12:45:01.823,,1506,1997,-1375
12:45:01.833,,1517,1997,-1043
12:45:01.843,,1508,1962,-800
12:45:01.853,,1439,1815,-675
12:45:01.863,,1303,1684,-623
12:45:01.873,,1152,1656,-596
12:45:01.883,,1041,1533,-457
12:45:01.893,,929,1418,-557
12:45:01.903,,722,1391,-643
12:45:01.913,,638,1256,-745
12:45:01.923,,553,1124,-662
12:45:01.933,,494,1062,-562
12:45:01.943,,459,939,-411
12:45:01.953,,421,817,-200
12:45:01.963,,394,724,45
12:45:01.973,,371,642,233
12:45:01.983,,343,556,355
12:45:01.993,,311,487,298
12:45:02.003,,274,461,229
12:45:02.013,,220,437,238
12:45:02.023,,174,393,260
12:45:02.033,,115,341,270
12:45:02.181,,-234,896,66
12:45:02.182,,-237,973,88
12:45:02.184,,-237,973,88
12:45:02.185,,-237,973,88
12:45:02.187,,-237,973,88
12:45:02.188,,-237,973,88
12:45:02.189,,-237,973,88
12:45:02.191,,-237,973,88
12:45:02.192,,-244,1064,120
12:45:02.193,,-244,1064,120
12:45:02.195,,-244,1064,120
12:45:02.196,,-244,1064,120
12:45:02.197,,-244,1064,120
12:45:02.199,,-244,1064,120
12:45:02.200,,-244,1064,120
12:45:02.202,,-275,1118,187
12:45:02.203,,-275,1118,187
12:45:02.213,,-310,1174,288
12:45:02.223,,-363,1220,400
12:45:02.233,,-438,1260,527
12:45:02.243,,-505,1316,660
12:45:02.253,,-540,1353,751
12:45:02.263,,-553,1469,783
12:45:02.273,,-648,1595,734
12:45:02.283,,-824,1743,684
12:45:02.293,,-1014,1844,640
12:45:02.303,,-1320,1860,490
12:45:02.313,,-1269,1875,359
12:45:02.323,,-1282,1995,421
12:45:02.333,,-1573,1997,643
12:45:02.343,,-1969,1997,641
12:45:02.353,,-1998,1997,632
12:45:02.363,,-1998,1997,675
12:45:02.373,,-1998,1997,553
12:45:02.383,,-1998,1997,518
12:45:02.393,,-1998,1997,434
12:45:02.403,,-1998,1997,245
12:45:02.413,,-1998,1997,46
12:45:02.423,,-1998,1997,-83
12:45:02.433,,-1998,1997,-44
12:45:02.443,,-1998,1997,106
12:45:02.453,,-1998,1996,274
12:45:02.463,,-1998,1890,471
12:45:02.473,,-1998,1670,732
12:45:02.483,,-1998,1534,917
12:45:02.493,,-1998,1480,985
12:45:02.503,,-1998,1456,1036
12:45:02.513,,-1998,1411,1076
12:45:02.523,,-1998,1331,1098
12:45:02.533,,-1998,1289,1169
