Sensors' Acquisition [Hz]: Gyro@104.0 
hh:mm:ss.ms, Annotation , GyroX [mdps], GyroY, GyroZ
16:19:50.336,,1330,-700,350
16:19:50.346,,1400,-700,490
16:19:50.356,,1470,-560,630
16:19:50.366,,1540,-560,630
16:19:50.376,,1540,-630,630
16:19:50.386,,1400,-700,630
16:19:50.396,,1190,-840,560
16:19:50.406,,1120,-980,490
16:19:50.416,,1120,-1050,490
16:19:50.426,>Stationary,,,
16:19:50.427,,1120,-1050,490
16:19:50.436,,1190,-910,490
16:19:50.446,,1400,-770,350
16:19:50.456,,1260,-840,420
16:19:50.466,,1330,-770,490
16:19:50.476,,1470,-700,560
16:19:50.486,,1750,-630,560
16:19:50.496,,1680,-630,630
16:19:50.506,,1540,-700,560
16:19:50.516,,1330,-840,490
16:19:50.526,,1120,-910,490
16:19:50.536,,980,-1050,490
16:19:50.546,,1050,-1050,560
16:19:50.556,,1120,-980,560
16:19:50.566,,1120,-980,560
16:19:50.576,,1190,-910,560
16:19:50.586,,1260,-910,490
16:19:50.596,,1260,-910,560
16:19:50.606,,1190,-840,560
16:19:50.616,,1260,-840,490
16:19:50.626,,1120,-910,420
16:19:50.636,,1050,-910,420
16:19:50.646,,1190,-840,420
16:19:50.656,,1330,-840,560
16:19:50.666,,1400,-840,560
16:19:50.676,,1400,-770,560
16:19:50.686,,1470,-700,630
16:19:50.696,,1470,-700,630
16:19:50.706,,1400,-630,560
16:19:50.716,,1330,-700,490
16:19:50.726,,1260,-770,490
16:19:50.736,,1260,-840,490
16:19:50.746,,1190,-910,490
16:19:50.756,,1190,-840,490
16:19:50.766,,1190,-840,420
16:19:50.776,,1330,-770,420
16:19:50.786,,1400,-770,490
16:19:50.796,,1610,-700,490
16:19:50.806,,1750,-700,490
16:19:50.816,,1750,-770,560
16:19:50.826,,1610,-840,560
16:19:50.836,,1470,-840,490
16:19:50.846,,1260,-840,420
16:19:50.856,,1260,-840,420
16:19:50.866,,1120,-980,420
16:19:50.876,,1120,-1050,350
16:19:50.886,,1260,-980,420
16:19:50.896,,1470,-840,490
16:19:50.906,,1610,-770,630
16:19:50.916,,1610,-700,630
16:19:50.926,,1610,-700,630
16:19:50.936,,1470,-770,560
16:19:50.946,,1260,-770,490
16:19:50.956,,1120,-910,490
16:19:50.966,,1190,-980,490
16:19:50.976,,1260,-980,490
16:19:50.986,,1190,-910,490
16:19:50.996,,1260,-910,490
16:19:51.006,,1260,-910,490
16:19:51.016,,1260,-840,490
16:19:51.026,,1330,-840,560
16:19:51.036,,1400,-840,560
16:19:51.046,,1330,-770,560
16:19:51.056,,1330,-770,490
16:19:51.066,,1190,-840,490
16:19:51.076,,1190,-840,490
16:19:51.086,,1190,-910,490
16:19:51.096,,1190,-910,490
16:19:51.106,,1260,-910,490
16:19:51.116,,1190,-910,420
16:19:51.126,,1330,-910,490
16:19:51.136,,1400,-910,560
16:19:51.146,,1400,-840,490
16:19:51.156,,1330,-910,490
16:19:51.166,,1120,-980,490
16:19:51.176,,980,-980,420
16:19:51.186,,980,-980,420
16:19:51.196,,1120,-980,490
16:19:51.206,,1190,-840,490
16:19:51.216,,1330,-770,490
16:19:51.226,,1540,-700,490
16:19:51.236,,1680,-700,490
16:19:51.246,,1680,-840,560
16:19:51.256,,1470,-910,560
16:19:51.266,,1330,-910,490
16:19:51.276,,1190,-910,350
16:19:51.286,,1260,-910,280
16:19:51.296,,1190,-980,280
16:19:51.306,,1190,-1050,350
16:19:51.316,,1330,-910,350
16:19:51.326,,1400,-840,420
16:19:51.336,,1400,-840,490
16:19:51.346,,1470,-770,420
16:19:51.356,,1470,-770,420
16:19:51.366,,1400,-910,420
16:19:51.376,,1400,-840,280
16:19:51.386,,1330,-840,350
16:19:51.396,,1330,-770,420
16:19:51.406,,1330,-770,420
16:19:51.416,,1190,-910,-70
16:19:51.426,,630,-1050,-4900
16:19:51.436,,1890,-630,-2940
16:19:51.446,,1610,-770,140
16:19:51.456,,1330,-770,490
16:19:51.466,,980,-840,560
16:19:51.476,,770,-770,350
16:19:51.486,,560,-770,420
16:19:51.496,,350,-840,420
16:19:51.506,,420,-700,560
16:19:51.516,,770,-770,630
16:19:51.526,,1400,-770,630
16:19:51.536,,1890,-840,630
16:19:51.546,,2240,-840,560
16:19:51.556,,2170,-910,560
16:19:51.566,,1820,-910,560
16:19:51.576,,1470,-910,560
16:19:51.586,,1120,-840,560
16:19:51.596,,490,-770,560
16:19:51.606,,210,-770,560
16:19:51.616,,70,-700,630
16:19:51.626,,210,-770,630
16:19:51.636,,980,-840,560
16:19:51.646,,1120,-840,490
16:19:51.656,,910,-840,490
16:19:51.666,,560,-840,350
16:19:51.676,,0,-840,280
16:19:51.686,,-210,-770,280
16:19:51.696,,280,-840,490
16:19:51.706,,1470,-910,560
16:19:51.716,,2450,-770,560
16:19:51.726,,2520,-700,630
16:19:51.736,,1820,-700,630
16:19:51.746,,980,-630,700
16:19:51.756,,560,-630,700
16:19:51.879,,1540,-980,420
16:19:51.881,,1540,-980,420
16:19:51.882,,1540,-980,420
16:19:51.883,,1540,-980,420
16:19:51.885,,1540,-980,420
16:19:51.886,,1540,-980,490
16:19:51.887,,1400,-980,490
16:19:51.889,,1400,-980,490
16:19:51.890,,1400,-980,490
16:19:51.892,,1400,-980,490
16:19:51.893,,1400,-980,490
16:19:51.894,,1400,-980,490
16:19:51.896,,1400,-980,490
16:19:51.897,,1680,-980,490
16:19:51.906,,1750,-910,490
16:19:51.916,,1610,-840,560
16:19:51.926,,1470,-700,630
16:19:51.936,,1540,-630,630
16:19:51.946,,1540,-630,700
16:19:51.956,,1680,-560,630
16:19:51.966,,1820,-630,700
16:19:51.976,,1960,-560,770
16:19:51.986,,1610,-420,840
16:19:51.996,,1050,-420,770
16:19:52.006,,490,-490,630
16:19:52.016,,140,-770,420
16:19:52.026,,700,-840,280
16:19:52.036,,1050,-910,350
16:19:52.046,,1610,-840,490
16:19:52.056,,2310,-840,700
16:19:52.066,,3080,-840,770
16:19:52.076,,3640,-840,700
16:19:52.086,,3010,-700,630
16:19:52.096,,1470,-840,630
16:19:52.106,,1120,-910,630
16:19:52.116,,840,-910,630
16:19:52.126,,840,-910,630
16:19:52.136,,490,-840,700
16:19:52.146,,-700,-630,770
16:19:52.156,,-1190,-560,770
16:19:52.166,,-1400,-560,700
16:19:52.176,,-1050,-560,770
16:19:52.186,,-70,-1050,1120
16:19:52.196,,0,-1120,1190
16:19:52.206,,-770,-770,910
16:19:52.216,,700,-910,560
16:19:52.226,,1820,-980,490
16:19:52.236,,2310,-1120,350
16:19:52.246,,2660,-1190,210
16:19:52.256,,2380,-1120,140
16:19:52.266,,2240,-1190,210
16:19:52.276,,2660,-1050,420
16:19:52.286,,2870,-1050,420
16:19:52.296,,3360,-1050,420
16:19:52.306,,3430,-980,350
16:19:52.316,,2800,-980,350
16:19:52.326,,2240,-1050,350
16:19:52.336,,1750,-910,350
16:19:52.346,,1400,-910,490
16:19:52.356,,1260,-840,560
16:19:52.366,,1120,-770,630
16:19:52.376,,1470,-770,630
16:19:52.386,,1820,-700,700
16:19:52.396,,1960,-700,700
16:19:52.406,,1750,-700,560
16:19:52.416,,1610,-700,490
16:19:52.426,,1470,-700,560
16:19:52.436,,1400,-770,490
16:19:52.446,,1330,-840,490
16:19:52.456,,1260,-840,490
16:19:52.466,,1120,-910,490
16:19:52.476,,1050,-980,420
16:19:52.486,,1050,-980,420
16:19:52.496,,1050,-980,420
16:19:52.506,,1190,-910,350
16:19:52.516,,1400,-840,420
16:19:52.526,,1470,-770,560
16:19:52.536,,1750,-700,560
16:19:52.546,,1610,-770,490
16:19:52.556,,1400,-840,490
16:19:52.566,,1260,-910,490
16:19:52.576,,1120,-910,490
16:19:52.586,,1260,-910,490
16:19:52.596,,1190,-910,490
16:19:52.606,,1330,-980,490
16:19:52.616,,1400,-910,420
16:19:52.626,,1400,-910,420
16:19:52.636,,1400,-910,420
16:19:52.646,,1330,-910,420
16:19:52.656,,1330,-910,350
16:19:52.666,,1400,-840,420
16:19:52.676,,1330,-840,420
16:19:52.686,,1330,-770,420
16:19:52.696,,1400,-840,420
16:19:52.706,,1400,-910,420
16:19:52.716,,1400,-910,560
16:19:52.726,,1400,-910,560
16:19:52.736,,1400,-840,560
16:19:52.746,,1470,-910,560
16:19:52.756,,1400,-910,560
16:19:52.766,,1330,-980,420
16:19:52.776,,1400,-910,350
16:19:52.786,,1330,-910,490
16:19:52.796,,1330,-910,490
16:19:52.806,,1470,-840,490
16:19:52.816,,1540,-770,560
16:19:52.826,,1540,-770,560
16:19:52.836,,1610,-840,560
16:19:52.846,,1610,-840,560
16:19:52.856,,1470,-840,560
16:19:52.866,,1400,-910,490
16:19:52.876,,1260,-910,420
16:19:52.886,,1120,-910,420
16:19:52.896,,1120,-910,420
16:19:52.906,,1190,-910,420
16:19:52.916,,1610,-700,560
16:19:52.926,,1680,-630,560
16:19:52.936,,1680,-700,630
16:19:52.946,,1540,-700,490
16:19:52.956,,1470,-700,490
16:19:52.966,,1330,-770,420
16:19:52.976,,1260,-770,420
16:19:52.986,,1260,-840,490
16:19:52.996,,1260,-840,420
16:19:53.006,,1400,-910,420
16:19:53.016,,1540,-910,490
16:19:53.026,,1680,-910,560
16:19:53.036,,1610,-770,630
16:19:53.046,,1470,-770,630
16:19:53.056,,1330,-840,560
16:19:53.066,,1260,-840,560
16:19:53.076,,1190,-840,560
16:19:53.086,,1260,-770,560
16:19:53.096,,1330,-840,560
16:19:53.106,,1400,-770,490
16:19:53.116,,1540,-700,490
16:19:53.126,,1610,-770,560
16:19:53.136,,1610,-770,560
16:19:53.146,,1610,-770,560
16:19:53.156,,1470,-700,630
16:19:53.166,,1330,-700,420
16:19:53.176,,1190,-770,420
16:19:53.186,,1260,-840,420
16:19:53.196,,1330,-840,420
16:19:53.206,,1470,-840,490
16:19:53.216,,1540,-840,490
16:19:53.341,,1330,-840,630
16:19:53.342,,1330,-840,630
16:19:53.343,,1330,-840,700
16:19:53.345,,1330,-840,700
16:19:53.346,,1330,-840,700
16:19:53.348,,1330,-840,700
16:19:53.349,,1330,-840,700
16:19:53.350,,1330,-840,700
16:19:53.352,,1330,-840,630
16:19:53.353,,1610,-770,630
16:19:53.354,,1610,-770,630
16:19:53.356,,1610,-770,630
16:19:53.357,,1610,-770,630
16:19:53.358,,1610,-770,630
16:19:53.366,,1540,-840,560
16:19:53.376,,1470,-910,560
16:19:53.386,,1400,-910,490
16:19:53.396,,1260,-1050,490
16:19:53.406,,1120,-1050,420
16:19:53.416,,1190,-1120,420
16:19:53.426,,1260,-1050,420
16:19:53.436,,1400,-980,490
16:19:53.446,,1540,-910,560
16:19:53.456,,1610,-910,560
16:19:53.466,,1470,-840,560
16:19:53.476,,1400,-840,490
16:19:53.486,,1400,-840,490
16:19:53.496,,1260,-840,420
16:19:53.506,,1260,-840,420
16:19:53.516,,1400,-770,420
16:19:53.526,,1400,-700,490
16:19:53.536,,1400,-700,490
16:19:53.546,,1400,-700,490
16:19:53.556,,1400,-700,490
16:19:53.566,,1400,-700,490
16:19:53.576,,1400,-700,560
16:19:53.586,,1470,-770,630
16:19:53.596,,1400,-770,560
16:19:53.606,,1400,-840,560
16:19:53.616,,1400,-840,560
16:19:53.626,,1400,-910,560
16:19:53.636,,1330,-980,490
16:19:53.646,,1330,-980,490
16:19:53.656,,1330,-980,560
16:19:53.666,,1400,-980,560
16:19:53.676,,1330,-980,560
16:19:53.686,,1400,-770,630
16:19:53.696,,1400,-700,630
16:19:53.706,,1470,-770,630
16:19:53.716,,1470,-770,560
16:19:53.726,,1330,-910,490
16:19:53.736,,1260,-980,350
16:19:53.746,,1190,-1050,350
16:19:53.756,,1260,-1050,350
16:19:53.766,,1400,-980,490
16:19:53.776,,1470,-770,560
16:19:53.786,,1540,-630,630
16:19:53.796,,1610,-560,630
16:19:53.806,,1540,-700,560
16:19:53.816,,1190,-1050,210
16:19:53.826,,910,-1330,140
16:19:53.836,,1050,-1330,-280
16:19:53.846,,1190,-1260,-350
16:19:53.856,,980,-1470,-2870
16:19:53.866,,1750,-1120,-4060
16:19:53.876,,1750,-1120,-2240
16:19:53.886,,1890,-980,-560
16:19:53.896,,1820,-910,-70
16:19:53.906,,1750,-980,70
16:19:53.916,,1470,-980,210
16:19:53.926,,1330,-1050,140
16:19:53.936,,1120,-910,350
16:19:53.946,,910,-770,420
16:19:53.956,,1190,-700,490
16:19:53.966,,1400,-630,560
16:19:53.976,,1750,-560,560
16:19:53.986,,1960,-490,630
16:19:53.996,,1890,-560,700
16:19:54.006,,1750,-630,630
16:19:54.016,,1680,-630,560
16:19:54.026,,1540,-700,490
16:19:54.036,,1400,-770,490
16:19:54.046,,1330,-840,490
16:19:54.056,,1190,-840,490
16:19:54.066,,1190,-910,490
16:19:54.076,,1120,-910,490
16:19:54.086,,1330,-840,490
16:19:54.096,,1470,-770,490
16:19:54.106,,1540,-770,560
16:19:54.116,,1610,-700,560
16:19:54.126,,1540,-700,560
16:19:54.136,,1540,-770,560
16:19:54.146,,1400,-910,490
16:19:54.156,,1330,-910,490
16:19:54.166,,1400,-980,560
16:19:54.176,,1470,-980,700
16:19:54.186,,1540,-980,770
16:19:54.196,,1470,-910,700
16:19:54.206,,1260,-910,560
16:19:54.216,,1260,-840,490
16:19:54.226,,1260,-910,490
16:19:54.236,,1190,-910,490
16:19:54.246,,1120,-980,420
16:19:54.256,,1050,-980,420
16:19:54.266,,1120,-1050,490
16:19:54.276,,1120,-1050,490
16:19:54.286,,1190,-1050,490
16:19:54.296,,1330,-980,490
16:19:54.306,,1330,-910,420
16:19:54.316,,1400,-840,420
16:19:54.326,,1330,-840,490
16:19:54.336,,1400,-770,560
16:19:54.346,,1400,-700,490
16:19:54.356,,1400,-630,560
16:19:54.366,,1330,-630,560
16:19:54.376,,1260,-700,560
16:19:54.386,,1260,-770,560
16:19:54.396,,1190,-840,560
16:19:54.406,,1260,-840,560
16:19:54.416,,1330,-910,630
16:19:54.426,,1400,-980,630
16:19:54.436,,1470,-910,700
16:19:54.446,,1540,-910,700
16:19:54.456,,1470,-840,560
16:19:54.466,,1470,-840,490
16:19:54.476,,1330,-840,490
16:19:54.486,,1330,-980,420
16:19:54.496,,1330,-910,490
16:19:54.506,,1260,-910,490
16:19:54.516,,1260,-980,420
16:19:54.526,,1330,-910,490
16:19:54.536,,1330,-840,490
16:19:54.546,,1400,-770,420
16:19:54.556,,1540,-770,420
16:19:54.566,,1610,-770,420
16:19:54.576,,1540,-770,490
16:19:54.586,,1470,-770,490
16:19:54.596,,1400,-770,490
16:19:54.606,,1260,-840,420
16:19:54.616,,1120,-910,420
16:19:54.626,,1050,-840,490
16:19:54.636,,1050,-840,420
16:19:54.646,,1190,-840,420
16:19:54.656,,1330,-840,490
16:19:54.666,,1400,-840,560
16:19:54.676,,1470,-840,560
16:19:54.798,,1120,-980,420
16:19:54.799,,1190,-1050,420
16:19:54.800,,1190,-1050,420
16:19:54.802,,1190,-1050,420
16:19:54.803,,1190,-1050,420
16:19:54.805,,1190,-1050,420
16:19:54.806,,1190,-1050,420
16:19:54.807,,1190,-1050,420
16:19:54.809,,1260,-1050,420
16:19:54.810,,1260,-1050,420
16:19:54.811,,1260,-1050,420
16:19:54.813,,1260,-1050,420
16:19:54.814,,1260,-1050,420
16:19:54.816,,1260,-1050,420
16:19:54.826,,1260,-1050,490
16:19:54.836,,1260,-910,560
16:19:54.846,,1330,-910,490
16:19:54.856,,1260,-980,490
16:19:54.866,,1190,-980,420
16:19:54.876,,1260,-910,490
16:19:54.886,,1330,-840,560
16:19:54.896,,1330,-770,490
16:19:54.906,,1400,-770,490
16:19:54.916,,1470,-630,420
16:19:54.926,,1540,-560,490
16:19:54.936,,1540,-490,490
16:19:54.946,,1610,-490,420
16:19:54.956,,1610,-560,490
16:19:54.966,,1470,-700,420
16:19:54.976,,1330,-770,420
16:19:54.986,,1330,-770,490
16:19:54.996,,1330,-770,420
16:19:55.006,,1400,-840,420
16:19:55.016,,1400,-840,420
16:19:55.026,,1470,-840,490
16:19:55.036,,1470,-840,560
16:19:55.046,,1470,-910,560
16:19:55.056,,1470,-980,560
16:19:55.066,,1400,-980,490
16:19:55.076,,1330,-980,490
16:19:55.086,,1330,-980,490
16:19:55.096,,1400,-840,560
16:19:55.106,,1400,-840,630
16:19:55.116,,1400,-840,630
16:19:55.126,,1330,-910,560
16:19:55.136,,1330,-840,490
16:19:55.146,,1330,-840,490
16:19:55.156,,1190,-910,490
16:19:55.166,,1120,-980,420
16:19:55.176,,1050,-1050,350
16:19:55.186,,1050,-1050,350
16:19:55.196,,1120,-1050,350
16:19:55.206,,1260,-980,350
16:19:55.216,,1400,-840,420
16:19:55.226,,1330,-770,490
16:19:55.236,,1330,-770,490
16:19:55.246,,1190,-700,420
16:19:55.256,,1120,-770,420
16:19:55.266,,980,-700,420
16:19:55.276,,980,-770,420
16:19:55.286,,1120,-770,420
16:19:55.296,,1400,-770,560
16:19:55.306,,1610,-700,630
16:19:55.316,,1610,-700,630
16:19:55.326,,1540,-630,560
16:19:55.336,,1260,-630,630
16:19:55.346,,840,-630,560
16:19:55.356,,-210,-700,630
16:19:55.366,,-140,-770,630
16:19:55.376,,140,-770,560
16:19:55.386,,560,-910,560
16:19:55.396,,1120,-910,490
16:19:55.406,,1470,-910,490
16:19:55.416,,1400,-910,350
16:19:55.426,,1050,-770,350
16:19:55.436,,700,-770,420
16:19:55.446,,840,-770,490
16:19:55.456,,1470,-700,560
16:19:55.466,,2100,-700,560
16:19:55.476,,2310,-700,630
16:19:55.486,,1470,-770,630
16:19:55.496,,1050,-840,560
16:19:55.506,,700,-910,490
16:19:55.516,,350,-840,350
16:19:55.526,,-140,-840,350
16:19:55.536,,-280,-910,350
16:19:55.546,,0,-840,350
16:19:55.556,,980,-910,490
16:19:55.566,,2310,-910,490
16:19:55.576,,3290,-980,560
16:19:55.586,,3710,-980,630
16:19:55.596,,3430,-980,560
16:19:55.606,,1750,-910,420
16:19:55.616,,980,-910,420
16:19:55.626,,490,-910,350
16:19:55.636,,700,-980,420
16:19:55.646,,1120,-910,490
16:19:55.656,,1610,-910,560
16:19:55.666,,2100,-840,630
16:19:55.676,,2170,-770,630
16:19:55.686,,2100,-700,700
16:19:55.696,,2100,-770,630
16:19:55.706,,2030,-840,630
16:19:55.716,,1820,-840,490
16:19:55.726,,1330,-910,420
16:19:55.736,,840,-910,350
16:19:55.746,,1050,-910,350
16:19:55.756,,1540,-840,420
16:19:55.766,,1890,-840,420
16:19:55.776,,1960,-770,490
16:19:55.786,,1820,-770,560
16:19:55.796,,1680,-700,560
16:19:55.806,,1470,-770,490
16:19:55.816,,1190,-770,420
16:19:55.826,,980,-840,420
16:19:55.836,,910,-770,420
16:19:55.846,,700,-770,420
16:19:55.856,,840,-700,490
16:19:55.866,,1680,-770,560
16:19:55.876,,1960,-770,490
16:19:55.886,,2100,-840,490
16:19:55.896,,2030,-840,560
16:19:55.906,,1680,-770,560
16:19:55.916,,1260,-840,490
16:19:55.926,,840,-840,420
16:19:55.936,,280,-840,420
16:19:55.946,,210,-910,420
16:19:55.956,,490,-980,420
16:19:55.966,,980,-980,420
16:19:55.976,,1400,-980,420
16:19:55.986,,1750,-910,490
16:19:55.996,,1330,-700,490
16:19:56.006,,700,-700,560
16:19:56.016,,350,-700,560
16:19:56.026,,140,-700,560
16:19:56.036,,210,-770,490
16:19:56.046,,350,-770,420
16:19:56.056,,280,-840,420
16:19:56.066,,280,-840,420
16:19:56.076,,700,-840,490
16:19:56.086,,770,-770,420
16:19:56.096,,770,-770,490
16:19:56.106,,1190,-840,560
16:19:56.116,,1820,-980,490
16:19:56.126,,2240,-910,420
16:19:56.136,,1820,-910,420
16:19:56.146,,1190,-910,420
16:19:56.269,,2450,-980,490
16:19:56.271,,2450,-980,490
16:19:56.272,,2450,-980,490
16:19:56.273,,2450,-980,490
16:19:56.275,,2170,-910,490
16:19:56.276,,2170,-910,490
16:19:56.278,,2170,-910,490
16:19:56.279,,2170,-910,490
16:19:56.280,,2170,-910,490
16:19:56.282,,2170,-910,490
16:19:56.283,,1680,-910,490
16:19:56.284,,1680,-910,490
16:19:56.286,,1680,-910,490
16:19:56.287,,1680,-910,490
16:19:56.296,,1540,-910,490
16:19:56.306,,1260,-910,490
16:19:56.316,,980,-910,490
16:19:56.326,,1050,-910,420
16:19:56.336,,1610,-980,490
16:19:56.346,,2240,-980,420
16:19:56.356,,2660,-980,420
16:19:56.366,,2520,-910,490
16:19:56.376,,1890,-910,490
16:19:56.386,,1610,-840,490
16:19:56.396,,1050,-840,490
16:19:56.406,,840,-770,420
16:19:56.416,,630,-770,350
16:19:56.426,,560,-840,280
16:19:56.436,,630,-840,350
16:19:56.446,,770,-910,420
16:19:56.456,,1120,-980,490
16:19:56.466,,1540,-980,420
16:19:56.476,,1890,-910,490
16:19:56.486,,2100,-910,560
16:19:56.496,,2380,-980,560
16:19:56.506,,1680,-980,560
16:19:56.516,,910,-980,490
16:19:56.526,,420,-910,490
16:19:56.536,,630,-980,420
16:19:56.546,,1260,-980,490
16:19:56.556,,2100,-1050,560
16:19:56.566,,2730,-980,490
16:19:56.576,,2660,-910,420
16:19:56.586,,2170,-840,490
16:19:56.596,,1680,-910,490
16:19:56.606,,1470,-840,490
16:19:56.616,,1330,-840,420
16:19:56.626,,1050,-910,490
16:19:56.636,,1120,-770,560
16:19:56.646,,1120,-770,490
16:19:56.656,,910,-770,490
16:19:56.666,,700,-840,420
16:19:56.676,,700,-910,350
16:19:56.686,,840,-840,420
16:19:56.696,,1260,-840,490
16:19:56.706,,1890,-840,490
16:19:56.716,,2380,-910,630
16:19:56.726,,2800,-840,630
16:19:56.736,,2450,-840,560
16:19:56.746,,1610,-840,490
16:19:56.756,,1260,-840,560
16:19:56.766,,1400,-840,560
16:19:56.776,,1400,-770,560
16:19:56.786,,1470,-840,560
16:19:56.796,,1470,-840,490
16:19:56.806,,1470,-770,490
16:19:56.816,,1400,-840,420
16:19:56.826,,1400,-840,420
16:19:56.836,,1470,-840,490
16:19:56.846,,1400,-770,490
16:19:56.856,,1260,-770,490
16:19:56.866,,980,-630,490
16:19:56.876,,560,-630,490
16:19:56.886,,490,-770,490
16:19:56.896,,1330,-910,490
16:19:56.906,,1750,-840,490
16:19:56.916,,1680,-840,490
16:19:56.926,,1260,-910,490
16:19:56.936,,840,-840,490
16:19:56.946,,770,-840,490
16:19:56.956,,910,-840,490
16:19:56.966,,1260,-910,490
16:19:56.976,,1750,-910,490
16:19:56.986,,1820,-910,560
16:19:56.996,,1750,-910,560
16:19:57.006,,1540,-910,560
16:19:57.016,,1120,-910,420
16:19:57.026,,1050,-980,420
16:19:57.036,,1260,-910,490
16:19:57.046,,1470,-980,490
16:19:57.056,,1820,-910,560
16:19:57.066,,1890,-910,560
16:19:57.076,,1750,-910,560
16:19:57.086,,1680,-910,490
16:19:57.096,,1610,-840,490
16:19:57.106,,1400,-910,420
16:19:57.116,,1190,-910,420
16:19:57.126,,1190,-910,420
16:19:57.136,,1260,-840,420
16:19:57.146,,1540,-770,560
16:19:57.156,,1610,-700,560
16:19:57.166,,1610,-770,560
16:19:57.176,,1610,-770,560
16:19:57.186,,1400,-840,490
16:19:57.196,,1400,-840,490
16:19:57.206,,1190,-910,420
16:19:57.216,,980,-980,420
16:19:57.226,,980,-910,350
16:19:57.236,,1120,-980,420
16:19:57.246,,1470,-910,420
16:19:57.256,,1540,-840,490
16:19:57.266,,1330,-840,490
16:19:57.276,,1470,-770,560
16:19:57.286,,1470,-770,560
16:19:57.296,,1330,-770,560
16:19:57.306,,1120,-770,490
16:19:57.316,,770,-700,490
16:19:57.326,,490,-700,630
16:19:57.336,,420,-840,560
16:19:57.346,,770,-910,420
16:19:57.356,,1260,-980,490
16:19:57.366,,1540,-1050,420
16:19:57.376,,1400,-910,350
16:19:57.386,,910,-910,280
16:19:57.396,,560,-840,350
16:19:57.406,,420,-700,420
16:19:57.416,,980,-700,490
16:19:57.426,,1400,-770,630
16:19:57.436,,1750,-770,630
16:19:57.446,,1680,-770,630
16:19:57.456,,1330,-770,490
16:19:57.466,,770,-840,350
16:19:57.476,,420,-910,350
16:19:57.486,,490,-910,350
16:19:57.496,,910,-980,420
16:19:57.506,,1470,-980,420
16:19:57.516,,1680,-910,490
16:19:57.526,,1400,-700,560
16:19:57.536,,630,-560,630
16:19:57.546,,420,-560,630
16:19:57.556,,630,-630,560
16:19:57.566,,1190,-770,560
16:19:57.576,,1540,-910,490
16:19:57.586,,1610,-910,560
16:19:57.596,,1330,-840,560
16:19:57.606,,980,-770,560
16:19:57.616,,840,-770,490
16:19:57.735,,1190,-980,490
16:19:57.736,,1190,-980,490
16:19:57.737,,1190,-980,490
16:19:57.739,,1190,-980,420
16:19:57.740,,1750,-1050,420
16:19:57.742,,1750,-1050,420
16:19:57.743,,1750,-1050,420
16:19:57.744,,1750,-1050,420
16:19:57.746,,1750,-1050,420
16:19:57.747,,1750,-1050,420
16:19:57.748,,1750,-980,490
16:19:57.750,,2100,-980,490
16:19:57.751,,2100,-980,490
16:19:57.756,,2100,-980,490
16:19:57.766,,2310,-980,490
16:19:57.776,,2310,-980,490
16:19:57.786,,2030,-910,420
16:19:57.796,,1750,-910,490
16:19:57.806,,1400,-840,490
16:19:57.816,,1050,-910,420
16:19:57.826,,910,-840,420
16:19:57.836,,910,-840,420
16:19:57.846,,1050,-840,490
16:19:57.856,,910,-770,560
16:19:57.866,,980,-770,560
16:19:57.876,,1260,-840,560
16:19:57.886,,1540,-910,560
16:19:57.896,,1820,-910,490
16:19:57.906,,1890,-910,420
16:19:57.916,,1610,-910,490
16:19:57.926,,1610,-910,560
16:19:57.936,,1680,-910,560
16:19:57.946,,1470,-840,560
16:19:57.956,,1190,-840,630
16:19:57.966,,1330,-840,630
16:19:57.976,,1540,-840,560
16:19:57.986,,1680,-840,490
16:19:57.996,,1680,-840,560
16:19:58.006,,1540,-910,560
16:19:58.016,,1400,-840,560
16:19:58.026,,1400,-840,560
16:19:58.036,,1400,-770,630
16:19:58.046,,1120,-910,420
16:19:58.056,,980,-910,420
16:19:58.066,,1050,-980,350
16:19:58.076,,1400,-980,420
16:19:58.086,,1890,-980,420
16:19:58.096,,2240,-910,420
16:19:58.106,,2310,-910,490
16:19:58.116,,2240,-980,420
16:19:58.126,,1820,-910,420
16:19:58.136,,1400,-910,420
16:19:58.146,,1120,-910,420
16:19:58.156,,1190,-910,490
16:19:58.166,,1260,-840,490
16:19:58.176,,1750,-910,490
16:19:58.186,,1960,-840,560
16:19:58.196,,1890,-770,560
16:19:58.206,,1680,-840,490
16:19:58.216,,1540,-840,420
16:19:58.226,,1750,-910,490
16:19:58.236,,1960,-910,490
16:19:58.246,,1820,-910,420
16:19:58.256,,1330,-980,350
16:19:58.266,,700,-910,490
16:19:58.276,,420,-840,490
16:19:58.286,,420,-700,630
16:19:58.296,,630,-770,630
16:19:58.306,,1330,-840,560
16:19:58.316,,1750,-840,490
16:19:58.326,,2100,-910,490
16:19:58.336,,2170,-910,490
16:19:58.346,,1960,-910,560
16:19:58.356,,1680,-840,630
16:19:58.366,,1540,-840,630
16:19:58.376,,1470,-840,630
16:19:58.386,,1330,-840,560
16:19:58.396,,1260,-770,490
16:19:58.406,,1050,-840,490
16:19:58.416,,770,-840,560
16:19:58.426,,910,-840,490
16:19:58.436,,980,-840,560
16:19:58.446,,980,-840,420
16:19:58.456,,1050,-910,420
16:19:58.466,,1190,-910,490
16:19:58.476,,1260,-910,420
16:19:58.486,,1050,-840,490
16:19:58.496,,700,-840,420
16:19:58.506,,630,-840,420
16:19:58.516,,1050,-840,490
16:19:58.526,,1610,-840,490
16:19:58.536,,1820,-840,490
16:19:58.546,,1680,-770,490
16:19:58.556,,1190,-840,560
16:19:58.565,,1330,-840,560
16:19:58.576,,1470,-840,490
16:19:58.586,,1330,-840,490
16:19:58.595,,1050,-840,490
16:19:58.606,,1050,-840,490
16:19:58.616,,1120,-840,420
16:19:58.625,,1400,-840,420
16:19:58.636,,1610,-910,490
16:19:58.646,,1750,-910,420
16:19:58.655,,1540,-910,420
16:19:58.666,,1260,-840,420
16:19:58.676,,1190,-840,490
16:19:58.685,,1260,-770,420
16:19:58.696,,1050,-840,420
16:19:58.705,,910,-840,490
16:19:58.715,,910,-840,490
16:19:58.726,,630,-840,420
16:19:58.735,,280,-770,560
16:19:58.745,,490,-770,700
16:19:58.756,,980,-770,700
16:19:58.765,,1470,-770,630
16:19:58.775,,1610,-840,560
16:19:58.786,,1610,-910,560
16:19:58.795,,1610,-980,420
16:19:58.805,,1610,-980,420
16:19:58.816,,1960,-980,560
16:19:58.825,,1890,-910,630
16:19:58.835,,1890,-910,630
16:19:58.846,,1820,-910,630
16:19:58.855,,1610,-980,630
16:19:58.865,,1330,-910,490
16:19:58.875,,1050,-980,490
16:19:58.885,,700,-910,420
16:19:58.895,,700,-910,350
16:19:58.905,,910,-840,420
16:19:58.915,,1330,-840,490
16:19:58.925,,1890,-910,490
16:19:58.935,,1960,-840,490
16:19:58.945,,1400,-840,420
16:19:58.955,,1190,-840,350
16:19:58.965,,1120,-840,420
16:19:58.975,,1400,-840,490
16:19:58.985,,1540,-770,490
16:19:58.995,,1680,-770,560
16:19:59.005,,1750,-770,490
16:19:59.015,,1680,-840,490
16:19:59.025,,1750,-840,490
16:19:59.035,,1680,-840,490
16:19:59.045,,1470,-770,490
16:19:59.055,,1470,-770,560
16:19:59.065,,1750,-770,560
16:19:59.075,,2030,-840,560
16:19:59.085,,2100,-840,560
16:19:59.205,,1610,-840,420
16:19:59.207,,1610,-840,420
16:19:59.208,,1610,-840,420
16:19:59.210,,1610,-840,420
16:19:59.211,,1610,-840,420
16:19:59.212,,1610,-840,420
16:19:59.214,,1610,-840,490
16:19:59.215,,1540,-840,490
16:19:59.216,,1540,-840,490
16:19:59.218,,1540,-840,490
16:19:59.219,,1540,-840,490
16:19:59.221,,1540,-840,490
16:19:59.222,,1540,-840,490
16:19:59.225,,1540,-840,490
16:19:59.235,,1470,-910,420
16:19:59.245,,1400,-910,420
16:19:59.255,,1330,-910,490
16:19:59.265,,1260,-840,420
16:19:59.275,,1330,-910,420
16:19:59.285,,1470,-840,490
16:19:59.295,,1470,-840,490
16:19:59.305,,1540,-840,490
16:19:59.315,,1470,-840,560
16:19:59.325,,1400,-840,560
16:19:59.335,,1400,-840,560
16:19:59.345,,1330,-840,560
16:19:59.355,,1260,-840,490
16:19:59.365,,1190,-840,490
16:19:59.375,,1330,-840,490
16:19:59.385,,1330,-840,490
16:19:59.395,,1400,-770,560
16:19:59.405,,1470,-770,560
16:19:59.415,,1470,-770,560
16:19:59.425,,1400,-770,560
16:19:59.435,,1400,-840,490
16:19:59.445,,1330,-840,420
16:19:59.455,,1400,-840,490
16:19:59.465,,1330,-840,490
16:19:59.475,,1400,-840,490
16:19:59.485,,1400,-840,490
16:19:59.495,,1400,-770,490
16:19:59.505,,1400,-770,490
16:19:59.515,,1330,-770,560
16:19:59.525,,1330,-840,560
16:19:59.535,,1260,-840,490
16:19:59.545,,1260,-910,420
16:19:59.555,,1260,-980,350
16:19:59.565,,1400,-1050,420
16:19:59.575,,1470,-910,560
16:19:59.585,,1540,-910,560
16:19:59.595,,1400,-910,560
16:19:59.605,,1330,-910,490
16:19:59.615,,1260,-910,490
16:19:59.625,,1260,-840,490
16:19:59.635,,1260,-840,490
16:19:59.645,,1330,-840,490
16:19:59.655,,1470,-840,560
16:19:59.665,,1400,-840,490
16:19:59.675,,1330,-910,420
16:19:59.685,,1400,-840,420
16:19:59.695,,1400,-840,420
16:19:59.705,,1470,-840,350
16:19:59.715,,1470,-910,420
16:19:59.725,,1400,-840,490
16:19:59.735,,1400,-840,490
16:19:59.745,,1400,-770,490
16:19:59.755,,1330,-770,420
16:19:59.765,,1330,-840,490
16:19:59.775,,1260,-840,490
16:19:59.785,,1260,-840,490
16:19:59.795,,1330,-910,490
16:19:59.805,,1400,-840,490
16:19:59.815,,1330,-910,490
16:19:59.825,,1330,-840,420
16:19:59.835,,1400,-770,490
16:19:59.845,,1470,-770,560
16:19:59.855,,1400,-840,560
16:19:59.865,,1400,-840,560
16:19:59.875,,1330,-840,560
16:19:59.885,,1260,-840,490
16:19:59.895,,1190,-840,490
16:19:59.905,,1190,-840,490
16:19:59.915,,1190,-840,350
16:19:59.925,,1330,-770,350
16:19:59.935,,1400,-770,350
16:19:59.945,,1540,-770,420
16:19:59.955,,1610,-770,420
16:19:59.965,,1470,-840,420
16:19:59.975,,1330,-980,350
16:19:59.985,,1120,-1050,280
16:19:59.995,,980,-1050,210
16:20:00.005,,1050,-1050,210
16:20:00.015,,1190,-1050,280
16:20:00.025,,1400,-980,350
16:20:00.035,,1610,-840,490
16:20:00.045,,1540,-840,560
16:20:00.055,,1470,-910,560
16:20:00.065,,1330,-980,560
16:20:00.075,,1260,-980,490
16:20:00.085,,1190,-980,560
16:20:00.095,,1120,-910,630
16:20:00.105,,1120,-840,700
16:20:00.115,,1120,-770,630
16:20:00.125,,1190,-770,630
16:20:00.135,,1260,-770,630
16:20:00.145,,1330,-770,700
16:20:00.155,,1400,-770,700
16:20:00.165,,1330,-700,700
16:20:00.175,,1330,-700,700
16:20:00.185,,1190,-630,630
16:20:00.195,,1120,-700,560
16:20:00.205,,1120,-700,490
16:20:00.215,,1260,-700,490
16:20:00.225,,1820,-630,700
16:20:00.235,,1750,-630,700
16:20:00.245,,1680,-560,700
16:20:00.255,,1540,-630,700
16:20:00.265,,1470,-700,630
16:20:00.275,,1400,-770,560
16:20:00.285,,1400,-770,490
16:20:00.295,,1470,-770,560
16:20:00.305,,1400,-840,630
16:20:00.315,,1330,-910,560
16:20:00.325,,1330,-910,490
16:20:00.335,,1330,-910,420
16:20:00.345,,1260,-980,420
16:20:00.355,,1470,-980,420
16:20:00.365,,1540,-980,420
16:20:00.375,,1540,-980,420
16:20:00.385,,1470,-980,490
16:20:00.395,,1400,-910,490
16:20:00.405,,1190,-910,490
16:20:00.415,,980,-980,420
16:20:00.425,,1050,-980,420
16:20:00.435,,1260,-910,420
16:20:00.445,,1400,-840,490
16:20:00.455,,1470,-770,560
16:20:00.465,,1540,-840,560
16:20:00.475,,1540,-770,560
16:20:00.485,,1400,-700,560
16:20:00.495,,1330,-770,490
16:20:00.505,,1260,-840,490
16:20:00.515,,1120,-840,420
16:20:00.525,,1190,-840,490
16:20:00.535,,1260,-770,560
16:20:00.545,,1330,-700,490
16:20:00.666,,1400,-840,560
16:20:00.667,,1400,-840,560
16:20:00.669,,1400,-840,560
16:20:00.670,,1400,-840,560
16:20:00.671,,1400,-840,560
16:20:00.673,,1400,-840,560
16:20:00.674,,1400,-840,560
16:20:00.675,,1400,-840,560
16:20:00.677,,1400,-840,560
16:20:00.678,,1400,-840,560
16:20:00.680,,1260,-910,490
16:20:00.681,,1260,-910,490
16:20:00.682,,1260,-910,490
16:20:00.685,,1260,-910,490
16:20:00.695,,1330,-910,490
16:20:00.705,,1330,-910,490
16:20:00.715,,1330,-910,420
16:20:00.725,,1400,-910,490
16:20:00.735,,1470,-840,560
16:20:00.745,,1400,-840,490
16:20:00.755,,1400,-840,490
16:20:00.765,,1330,-910,490
16:20:00.775,,1190,-980,350
16:20:00.785,,1050,-980,350
16:20:00.795,,1050,-910,350
16:20:00.805,,1190,-980,350
16:20:00.815,,1400,-910,420
16:20:00.825,,1470,-770,490
16:20:00.835,,1540,-770,560
16:20:00.845,,1610,-770,560
16:20:00.855,,1540,-700,490
16:20:00.865,,1400,-770,560
16:20:00.875,,1190,-840,490
16:20:00.885,,1120,-910,420
16:20:00.895,,1120,-910,420
16:20:00.905,,1260,-840,420
16:20:00.915,,1400,-770,490
16:20:00.925,,1470,-770,560
16:20:00.935,,1470,-770,630
16:20:00.945,,1680,-700,630
16:20:00.955,,1610,-770,630
16:20:00.965,,1470,-770,560
16:20:00.975,,1330,-840,490
16:20:00.985,,1260,-840,490
16:20:00.995,,1330,-840,490
16:20:01.005,,1330,-840,560
16:20:01.015,,1470,-770,630
16:20:01.025,,1540,-770,560
16:20:01.035,,1540,-700,560
16:20:01.045,,1400,-770,490
16:20:01.055,,1400,-840,490
16:20:01.065,,1400,-770,560
16:20:01.075,,1400,-840,560
16:20:01.085,,1400,-770,630
16:20:01.095,,1330,-770,630
16:20:01.105,,1330,-770,560
16:20:01.115,,1260,-980,420
16:20:01.125,,1190,-1050,350
16:20:01.135,,1260,-980,350
16:20:01.145,,1470,-910,420
16:20:01.155,,1610,-840,560
16:20:01.165,,1680,-770,630
16:20:01.175,,1540,-700,630
16:20:01.185,,1470,-840,560
16:20:01.195,,1260,-910,490
16:20:01.205,,1190,-910,420
16:20:01.215,,1120,-980,490
16:20:01.225,,1190,-910,420
16:20:01.235,,1260,-840,490
16:20:01.245,,1470,-770,490
16:20:01.255,,1540,-770,490
16:20:01.265,,1610,-770,490
16:20:01.275,,1540,-770,490
16:20:01.285,,1470,-770,490
16:20:01.295,,1400,-840,490
16:20:01.305,,1400,-770,490
16:20:01.315,,1260,-770,560
16:20:01.325,,1260,-770,630
16:20:01.335,,1190,-770,560
16:20:01.345,,1260,-770,560
16:20:01.355,,1330,-840,490
16:20:01.365,,1330,-910,490
16:20:01.375,,1330,-980,490
16:20:01.385,,1330,-980,490
16:20:01.395,,1330,-910,490
16:20:01.405,,1400,-910,560
16:20:01.415,,1330,-910,560
16:20:01.425,,1330,-840,490
16:20:01.435,,1330,-840,490
16:20:01.445,,1400,-840,420
16:20:01.455,,1470,-840,490
16:20:01.465,,1470,-770,490
16:20:01.475,,1400,-840,490
16:20:01.485,,1400,-840,490
16:20:01.495,,1330,-840,490
16:20:01.505,,1330,-770,490
16:20:01.515,,1470,-840,490
16:20:01.525,,1540,-840,560
16:20:01.535,,1540,-770,560
16:20:01.545,,1540,-770,560
16:20:01.555,,1330,-770,560
16:20:01.565,,1120,-770,560
16:20:01.575,,1050,-840,560
16:20:01.585,,1120,-770,560
16:20:01.595,,1190,-700,630
16:20:01.605,,1330,-700,630
16:20:01.615,,1400,-630,630
16:20:01.625,,1400,-700,630
16:20:01.635,,1330,-770,490
16:20:01.645,,1330,-840,490
16:20:01.655,,1330,-910,420
16:20:01.665,,1400,-910,420
16:20:01.675,,1470,-910,490
16:20:01.685,,1400,-840,560
16:20:01.695,,1470,-840,560
16:20:01.705,,1470,-770,560
16:20:01.715,,1400,-840,560
16:20:01.725,,1330,-910,560
16:20:01.735,,1400,-840,560
16:20:01.745,,1400,-840,560
16:20:01.755,,1400,-840,490
16:20:01.765,,1330,-910,490
16:20:01.775,,1330,-840,490
16:20:01.785,,1400,-910,420
16:20:01.795,,1470,-910,420
16:20:01.805,,1610,-840,420
16:20:01.815,,1540,-840,490
16:20:01.825,,1540,-910,490
16:20:01.835,,1400,-840,490
16:20:01.845,,1330,-840,420
16:20:01.855,,1330,-840,350
16:20:01.865,,1330,-840,420
16:20:01.875,,1330,-840,420
16:20:01.885,,1400,-840,490
16:20:01.895,,1400,-840,490
16:20:01.905,,1400,-770,560
16:20:01.915,,1400,-770,560
16:20:01.925,,1330,-770,560
16:20:01.935,,1190,-770,560
16:20:01.945,,1190,-840,560
16:20:01.955,,1190,-840,560
16:20:01.965,,1260,-910,490
16:20:01.975,,1260,-910,490
16:20:01.985,,1330,-840,490
16:20:01.995,,1400,-840,490
16:20:02.005,,1400,-840,560
16:20:02.015,,1470,-840,560
16:20:02.142,,1330,-700,630
16:20:02.143,,1330,-700,630
16:20:02.145,,1330,-700,630
16:20:02.146,,1330,-700,630
16:20:02.147,,1330,-700,630
16:20:02.149,,1330,-700,630
16:20:02.150,,1330,-700,630
16:20:02.152,,1330,-700,630
16:20:02.153,,1330,-700,630
16:20:02.154,,1400,-770,560
16:20:02.156,,1400,-770,560
16:20:02.157,,1400,-770,560
16:20:02.158,,1400,-770,560
16:20:02.160,,1400,-770,560
16:20:02.165,,1400,-770,560
16:20:02.175,,1400,-770,490
16:20:02.185,,1190,-840,420
16:20:02.195,,1120,-840,420
16:20:02.205,,1190,-840,420
16:20:02.215,,1120,-840,420
16:20:02.225,,1260,-840,490
16:20:02.235,,1540,-770,560
16:20:02.245,,1750,-770,560
16:20:02.255,,1680,-840,560
16:20:02.265,,1540,-840,490
16:20:02.275,,1400,-910,420
16:20:02.285,,1400,-910,490
16:20:02.295,,1400,-910,490
16:20:02.305,,1540,-840,560
16:20:02.315,,1610,-770,560
16:20:02.325,,1610,-770,560
16:20:02.335,,1470,-770,560
16:20:02.345,,1330,-840,490
16:20:02.355,,1260,-910,420
16:20:02.365,,1260,-910,350
16:20:02.375,,1260,-910,350
16:20:02.385,,1400,-840,420
16:20:02.395,,1540,-840,490
16:20:02.405,,1610,-770,560
16:20:02.415,,1610,-770,490
16:20:02.425,,1470,-840,420
16:20:02.435,,1330,-840,420
16:20:02.445,,1260,-910,420
16:20:02.455,,1190,-910,350
16:20:02.465,,1260,-910,420
16:20:02.475,,1260,-910,490
16:20:02.485,,1260,-910,490
16:20:02.495,,1400,-910,490
16:20:02.505,,1400,-840,490
16:20:02.515,,1400,-840,490
16:20:02.525,,1400,-840,490
16:20:02.535,,1260,-840,420
16:20:02.545,,1330,-840,490
16:20:02.555,,1330,-840,490
16:20:02.565,,1400,-840,490
16:20:02.575,,1330,-910,490
16:20:02.585,,1330,-910,490
16:20:02.595,,1330,-910,490
16:20:02.605,,1330,-910,490
16:20:02.615,,1260,-910,490
16:20:02.625,,1330,-840,490
16:20:02.635,,1400,-840,490
16:20:02.645,,1470,-840,490
16:20:02.655,,1470,-770,560
16:20:02.665,,1470,-770,560
16:20:02.675,,1330,-770,490
16:20:02.685,,1260,-910,490
16:20:02.695,,1260,-910,420
16:20:02.705,,1190,-980,350
16:20:02.715,,1260,-910,350
16:20:02.725,,1330,-910,350
16:20:02.735,,1400,-910,350
16:20:02.745,,1400,-910,420
16:20:02.755,,1400,-910,490
16:20:02.765,,1470,-910,490
16:20:02.775,,1470,-840,490
16:20:02.785,,1330,-910,490
16:20:02.795,,1260,-910,490
16:20:02.805,,1260,-910,420
16:20:02.815,,1330,-840,420
16:20:02.825,,1330,-840,490
16:20:02.835,,1400,-770,560
16:20:02.845,,1400,-770,630
16:20:02.855,,1400,-770,560
16:20:02.865,,1330,-910,490
16:20:02.875,,1330,-980,490
16:20:02.885,,1260,-980,490
16:20:02.895,,1260,-1050,490
16:20:02.905,,1330,-980,420
16:20:02.915,,1470,-910,490
16:20:02.925,,1470,-840,630
16:20:02.935,,1400,-840,630
16:20:02.945,,1400,-840,560
16:20:02.955,,1260,-770,490
16:20:02.965,,1260,-840,490
16:20:02.975,,1260,-840,490
16:20:02.985,,1260,-840,420
16:20:02.995,,1330,-910,420
16:20:03.005,,1330,-910,420
16:20:03.015,,1400,-910,490
16:20:03.025,,1400,-840,490
16:20:03.035,,1400,-840,490
16:20:03.045,,1470,-840,490
16:20:03.055,,1330,-840,490
16:20:03.065,,1260,-840,420
16:20:03.075,,1120,-910,420
16:20:03.085,,1120,-910,420
16:20:03.095,,1190,-910,420
16:20:03.105,,1260,-840,350
16:20:03.115,,1400,-840,490
16:20:03.125,,1470,-770,560
16:20:03.135,,1540,-770,560
16:20:03.145,,1540,-770,560
16:20:03.155,,1470,-840,560
16:20:03.165,,1400,-910,490
16:20:03.175,,1260,-980,420
16:20:03.185,,1260,-980,420
16:20:03.195,,1260,-910,420
16:20:03.205,,1400,-840,490
16:20:03.215,,1470,-770,490
16:20:03.225,,1540,-770,560
16:20:03.235,,1470,-770,560
16:20:03.245,,1400,-840,490
16:20:03.255,,1330,-910,420
16:20:03.265,,1260,-980,420
16:20:03.275,,1190,-1050,350
16:20:03.285,,1400,-910,280
16:20:03.295,,1470,-840,490
16:20:03.305,,1610,-770,490
16:20:03.315,,1540,-770,490
16:20:03.325,,1470,-840,490
16:20:03.335,,1260,-910,490
16:20:03.345,,1190,-910,490
16:20:03.355,,1190,-980,420
16:20:03.365,,1190,-980,420
16:20:03.375,,1260,-910,420
16:20:03.385,,1330,-840,420
16:20:03.395,,1400,-770,490
16:20:03.405,,1470,-770,560
16:20:03.415,,1470,-770,560
16:20:03.425,,1470,-700,560
16:20:03.435,,1400,-770,560
16:20:03.445,,1260,-770,560
16:20:03.455,,1190,-770,490
16:20:03.465,,1260,-770,560
16:20:03.475,,1260,-770,560
16:20:03.597,,1400,-770,490
16:20:03.598,,1400,-770,490
16:20:03.600,,1400,-770,490
16:20:03.601,,1400,-770,420
16:20:03.602,,1400,-770,420
16:20:03.604,,1400,-770,420
16:20:03.605,,1400,-770,420
16:20:03.606,,1400,-770,420
16:20:03.608,,1400,-770,420
16:20:03.609,,1400,-770,420
16:20:03.610,,1400,-770,420
16:20:03.612,,1330,-770,420
16:20:03.613,,1330,-770,420
16:20:03.615,,1330,-770,420
16:20:03.625,,1330,-840,420
16:20:03.635,,1400,-910,420
16:20:03.645,,1400,-980,490
16:20:03.655,,1470,-980,490
16:20:03.665,,1540,-910,490
16:20:03.675,,1470,-840,560
16:20:03.685,,1330,-840,560
16:20:03.695,,1260,-770,490
16:20:03.705,,1190,-910,490
16:20:03.715,,1120,-980,420
16:20:03.725,,1120,-1050,420
16:20:03.735,,1190,-1050,420
16:20:03.745,,1260,-980,490
16:20:03.755,,1400,-910,560
16:20:03.765,,1470,-770,630
16:20:03.775,,1470,-700,630
16:20:03.785,,1400,-630,630
16:20:03.795,,1330,-700,630
16:20:03.805,,1260,-700,490
16:20:03.815,,1050,-840,420
16:20:03.825,,1050,-840,420
16:20:03.835,,1120,-770,420
16:20:03.845,,1120,-700,350
16:20:03.855,,1120,-770,420
16:20:03.865,,1190,-770,560
16:20:03.875,,1330,-770,630
16:20:03.885,,1400,-770,560
16:20:03.895,,1190,-770,560
16:20:03.905,,980,-700,560
16:20:03.915,,910,-770,490
16:20:03.925,,1050,-770,560
16:20:03.935,,1120,-770,560
16:20:03.945,,1610,-840,560
16:20:03.955,,1680,-910,490
16:20:03.965,,1680,-910,420
16:20:03.975,,1610,-910,420
16:20:03.985,,1610,-910,420
16:20:03.995,,1540,-980,490
16:20:04.005,,1540,-910,490
16:20:04.015,,1540,-910,490
16:20:04.025,,1540,-840,490
16:20:04.035,,1540,-840,560
16:20:04.045,,1330,-840,490
16:20:04.055,,1260,-840,490
16:20:04.065,,1260,-840,490
16:20:04.075,,1330,-840,490
16:20:04.085,,1400,-840,490
16:20:04.095,,1470,-840,490
16:20:04.105,,1610,-770,560
16:20:04.115,,1540,-770,490
16:20:04.125,,1470,-770,490
16:20:04.135,,1400,-770,420
16:20:04.145,,1330,-840,490
16:20:04.155,,1330,-840,420
16:20:04.165,,1330,-840,350
16:20:04.175,,1260,-840,350
16:20:04.185,,1260,-910,420
16:20:04.195,,1470,-840,490
16:20:04.205,,1540,-770,490
16:20:04.215,,1540,-770,560
16:20:04.225,,1400,-770,560
16:20:04.235,,1260,-840,490
16:20:04.245,,1260,-840,490
16:20:04.255,,1260,-840,490
16:20:04.265,,1330,-840,560
16:20:04.275,,1330,-840,560
16:20:04.285,,1330,-840,560
16:20:04.295,,1330,-770,630
16:20:04.305,,1330,-840,630
16:20:04.315,,1330,-840,560
16:20:04.325,,1260,-910,560
16:20:04.335,,1330,-840,490
16:20:04.345,,1330,-910,560
16:20:04.355,,1330,-840,560
16:20:04.365,,1260,-910,560
16:20:04.375,,1260,-980,490
16:20:04.385,,1260,-910,490
16:20:04.395,,1260,-770,490
16:20:04.405,,1260,-700,490
16:20:04.415,,1050,-700,560
16:20:04.425,,980,-700,560
16:20:04.435,,1050,-770,560
16:20:04.445,,1260,-770,490
16:20:04.455,,1470,-840,420
16:20:04.465,,1400,-910,350
16:20:04.475,,1400,-910,350
16:20:04.485,,1260,-840,350
16:20:04.495,,1330,-840,420
16:20:04.505,,1470,-770,560
16:20:04.515,,1610,-770,630
16:20:04.525,,1610,-700,630
16:20:04.535,,1400,-770,630
16:20:04.545,,1190,-770,560
16:20:04.555,,910,-840,490
16:20:04.565,,630,-840,490
16:20:04.575,,630,-840,490
16:20:04.585,,1400,-910,490
16:20:04.595,,2030,-910,560
16:20:04.605,,2590,-840,630
16:20:04.615,,2380,-700,630
16:20:04.625,,1680,-770,630
16:20:04.635,,1260,-770,560
16:20:04.645,,1050,-840,560
16:20:04.655,,1050,-840,490
16:20:04.665,,1120,-840,420
16:20:04.675,,1330,-840,420
16:20:04.685,,1470,-770,490
16:20:04.695,,1540,-770,560
16:20:04.705,,1610,-770,490
16:20:04.715,,1750,-770,490
16:20:04.725,,1470,-840,420
16:20:04.735,,1190,-980,350
16:20:04.745,,1050,-840,350
16:20:04.755,,1050,-840,420
16:20:04.765,,1190,-770,490
16:20:04.775,,1330,-700,560
16:20:04.785,,1400,-630,560
16:20:04.795,,1470,-630,700
16:20:04.805,,1540,-700,630
16:20:04.815,,1470,-700,630
16:20:04.825,,1400,-770,560
16:20:04.835,,1470,-910,490
16:20:04.845,,1470,-980,490
16:20:04.855,,1470,-910,420
16:20:04.865,,1330,-910,420
16:20:04.875,,1260,-840,490
16:20:04.885,,1400,-770,490
16:20:04.895,,1540,-840,560
16:20:04.905,,1610,-840,560
16:20:04.915,,1610,-770,630
16:20:04.925,,1540,-840,630
16:20:04.935,,1470,-840,490
16:20:05.057,,1120,-840,420
16:20:05.058,,1050,-840,420
16:20:05.060,,1050,-840,420
16:20:05.061,,1050,-840,420
16:20:05.063,,1050,-840,420
16:20:05.064,,1050,-840,420
16:20:05.065,,1050,-840,420
16:20:05.067,,1050,-770,490
16:20:05.068,,1190,-770,490
16:20:05.069,,1190,-770,490
16:20:05.071,,1190,-770,490
16:20:05.072,,1190,-770,490
16:20:05.073,,1190,-770,490
16:20:05.075,,1190,-770,490
16:20:05.085,,1400,-770,560
16:20:05.095,,1540,-840,560
16:20:05.105,,1470,-840,560
16:20:05.115,,1400,-840,560
16:20:05.125,,1330,-840,560
16:20:05.135,,1330,-840,490
16:20:05.145,,1260,-840,490
16:20:05.155,,1120,-840,560
16:20:05.165,,1190,-910,560
16:20:05.175,,1190,-910,560
16:20:05.185,,1120,-910,560
16:20:05.195,,1120,-910,490
16:20:05.205,,1120,-910,350
16:20:05.215,,1050,-980,420
16:20:05.225,,1470,-910,420
16:20:05.235,,1610,-840,350
16:20:05.245,,1540,-770,420
16:20:05.255,,1400,-770,490
16:20:05.265,,1470,-840,560
16:20:05.275,,1400,-840,490
16:20:05.285,,1260,-840,420
16:20:05.295,,1050,-840,350
16:20:05.305,,910,-840,280
16:20:05.315,,840,-840,350
16:20:05.325,,700,-770,420
16:20:05.335,,910,-700,560
16:20:05.345,,1470,-770,560
16:20:05.355,,2380,-910,420
16:20:05.365,,1820,-980,420
16:20:05.375,,1330,-980,350
16:20:05.385,,1190,-1050,280
16:20:05.395,,1260,-1120,280
