Sensors' Acquisition [Hz]: Gyro@104.0 
hh:mm:ss.ms, Annotation , GyroX [mdps], GyroY, GyroZ
16:18:38.340,,102340,19880,10920
16:18:38.350,,382760,-5390,7070
16:18:38.360,,121520,-100730,-81270
16:18:38.370,,54460,-57750,-109550
16:18:38.380,,45290,-53760,-113890
16:18:38.390,,46270,-61740,-117110
16:18:38.400,,48300,-68810,-119980
16:18:38.410,,48510,-73500,-121310
16:18:38.420,,45990,-75950,-129360
16:18:38.430,>Gesture,,,
16:18:38.431,,44590,-79660,-138320
16:18:38.440,,47880,-86030,-144900
16:18:38.450,,50050,-89460,-155540
16:18:38.460,,48510,-85120,-174160
16:18:38.470,,47600,-83930,-181580
16:18:38.480,,44310,-83440,-189770
16:18:38.490,,40740,-83720,-198870
16:18:38.500,,38010,-83440,-208600
16:18:38.510,,34370,-82460,-217770
16:18:38.520,,25410,-80010,-226240
16:18:38.530,,16450,-77630,-235550
16:18:38.540,,10920,-76650,-246750
16:18:38.550,,10080,-77420,-256410
16:18:38.560,,11550,-76230,-262990
16:18:38.570,,10360,-72310,-266770
16:18:38.580,,1400,-67690,-272370
16:18:38.590,,-28000,-56840,-292250
16:18:38.600,,-36680,-51030,-303240
16:18:38.610,,-38010,-46760,-311990
16:18:38.620,,-33600,-45360,-318150
16:18:38.630,,-27860,-47320,-322140
16:18:38.640,,-25270,-51660,-322840
16:18:38.650,,-29190,-55020,-318920
16:18:38.660,,-39550,-54250,-311430
16:18:38.670,,-52150,-47880,-302330
16:18:38.680,,-60130,-35770,-293440
16:18:38.690,,-53480,-20790,-284900
16:18:38.700,,-30940,-8680,-274470
16:18:38.710,,-2520,-3010,-248710
16:18:38.720,,35420,-3220,-239330
16:18:38.730,,42350,-4130,-231700
16:18:38.740,,42140,-3220,-224210
16:18:38.750,,37730,-490,-217630
16:18:38.760,,31780,1610,-213290
16:18:38.770,,25830,-700,-212240
16:18:38.780,,17640,-6580,-214340
16:18:38.790,,3080,-11550,-218400
16:18:38.800,,-14070,-13440,-224560
16:18:38.810,,-26880,-12670,-230650
16:18:38.820,,-34860,-10640,-235410
16:18:38.830,,-40460,-7490,-240660
16:18:38.840,,-43400,-3150,-248220
16:18:38.850,,-32830,3920,-247030
16:18:38.860,,-22190,3220,-242340
16:18:38.870,,-16590,2800,-235340
16:18:38.880,,-14910,5390,-227430
16:18:38.890,,-14000,10850,-218540
16:18:38.900,,-9520,18200,-209790
16:18:38.910,,-2800,25200,-206430
16:18:38.920,,-3360,31640,-202230
16:18:38.930,,-8680,36820,-193620
16:18:38.940,,-14210,39480,-184100
16:18:38.950,,-17920,41860,-175560
16:18:38.960,,-21350,44380,-165340
16:18:38.970,,-20650,33530,-137550
16:18:38.980,,-15050,20370,-115710
16:18:38.990,,-13020,6510,-87430
16:18:39.000,,-14560,-4690,-55510
16:18:39.010,,-12950,-12390,-22680
16:18:39.020,,-6860,-17990,7560
16:18:39.030,,4760,-21350,31220
16:18:39.040,,16030,-24640,53900
16:18:39.050,,23940,-21980,72380
16:18:39.060,,30730,-19460,86030
16:18:39.070,,36960,-19950,98490
16:18:39.080,,35350,-20650,109690
16:18:39.090,,28070,-19810,119560
16:18:39.100,,15400,-22470,129920
16:18:39.110,,11550,-29330,137200
16:18:39.120,,17220,-36680,141890
16:18:39.130,,24990,-40530,143850
16:18:39.140,,22400,-40320,147980
16:18:39.150,,11200,-37660,154560
16:18:39.160,,210,-35700,161070
16:18:39.170,,-8610,-35840,166390
16:18:39.180,,-13440,-36750,170870
16:18:39.190,,-14840,-36820,174860
16:18:39.200,,-12670,-36470,178080
16:18:39.210,,-7280,-35770,180600
16:18:39.220,,770,-34230,182770
16:18:39.230,,17290,-34370,187740
16:18:39.240,,21560,-35350,191590
16:18:39.250,,20440,-33670,196280
16:18:39.260,,15330,-28840,200830
16:18:39.270,,8470,-22260,205590
16:18:39.280,,2030,-16660,209020
16:18:39.290,,-1960,-12670,210700
16:18:39.300,,-3010,-8190,211820
16:18:39.310,,560,-5320,212730
16:18:39.320,,8820,-5250,212730
16:18:39.330,,16240,-6790,211470
16:18:39.340,,17290,-8820,210280
16:18:39.350,,10920,-9450,209650
16:18:39.360,,-7700,-5110,209790
16:18:39.370,,-12250,-1120,209090
16:18:39.380,,-11410,3220,208110
16:18:39.390,,-6090,7700,207200
16:18:39.400,,3290,9940,207410
16:18:39.410,,13720,9940,208320
16:18:39.420,,21210,9240,209160
16:18:39.430,,23170,11620,210070
16:18:39.440,,18760,18690,212660
16:18:39.450,,11480,27090,216160
16:18:39.460,,6020,32830,218190
16:18:39.470,,3150,35420,217770
16:18:39.480,,1820,36680,214550
16:18:39.490,,-2590,39200,215670
16:18:39.500,,-9450,40460,218050
16:18:39.625,,14560,55090,218540
16:18:39.626,,14560,55090,218540
16:18:39.627,,14560,55090,218540
16:18:39.629,,14560,54670,213010
16:18:39.630,,8820,54670,213010
16:18:39.632,,8820,54670,213010
16:18:39.633,,8820,54670,213010
16:18:39.634,,8820,54670,213010
16:18:39.636,,8820,54670,213010
16:18:39.637,,8820,54670,213010
16:18:39.638,,490,55020,206990
16:18:39.640,,490,55020,206990
16:18:39.641,,490,55020,206990
16:18:39.643,,490,55020,206990
16:18:39.650,,-9590,53340,201810
16:18:39.660,,-18340,49000,196840
16:18:39.670,,-23730,45780,190960
16:18:39.680,,-25830,45710,185360
16:18:39.690,,-24710,48720,179270
16:18:39.700,,-20930,51450,172410
16:18:39.710,,-14840,51590,165130
16:18:39.720,,-8610,49910,157150
16:18:39.730,,-5460,47390,150080
16:18:39.740,,210,42770,136990
16:18:39.750,,2100,40600,129990
16:18:39.760,,3290,38220,123340
16:18:39.770,,4270,35000,118160
16:18:39.780,,3010,31710,114030
16:18:39.790,,-840,28840,106820
16:18:39.800,,-2660,24360,93380
16:18:39.810,,-350,20370,81830
16:18:39.820,,-3290,24080,75880
16:18:39.830,,-12530,31990,72380
16:18:39.840,,7700,31080,61040
16:18:39.850,,27790,26950,47880
16:18:39.860,,31080,28070,33530
16:18:39.870,,18620,27860,8610
16:18:39.880,,12250,23590,-3640
16:18:39.890,,2100,17570,-18760
16:18:39.900,,-210,6300,-35000
16:18:39.910,,7350,-5950,-52290
16:18:39.920,,18410,-17570,-68250
16:18:39.930,,24850,-25690,-83720
16:18:39.940,,24920,-27300,-96880
16:18:39.950,,19950,-26670,-105280
16:18:39.960,,10220,-26250,-109620
16:18:39.970,,5460,-26950,-107730
16:18:39.980,,8540,-27230,-107520
16:18:39.990,,14350,-28140,-111930
16:18:40.000,,19390,-41720,-123060
16:18:40.010,,18550,-51240,-128450
16:18:40.020,,15470,-58310,-134890
16:18:40.030,,9870,-61670,-142590
16:18:40.040,,4410,-61740,-150500
16:18:40.050,,2030,-60340,-157990
16:18:40.060,,4480,-59570,-164500
16:18:40.070,,11270,-59920,-169610
16:18:40.080,,19880,-60760,-174090
16:18:40.090,,28070,-61880,-178780
16:18:40.100,,34510,-62720,-183120
16:18:40.110,,38080,-63700,-186900
16:18:40.120,,37660,-65380,-187180
16:18:40.130,,28490,-64330,-185080
16:18:40.140,,24150,-59360,-185080
16:18:40.150,,23870,-53970,-185500
16:18:40.160,,27720,-50750,-185570
16:18:40.170,,33600,-49700,-186410
16:18:40.180,,39760,-49840,-187600
16:18:40.190,,44170,-50050,-189070
16:18:40.200,,43890,-49140,-190820
16:18:40.210,,39130,-47670,-191520
16:18:40.220,,31920,-45360,-190750
16:18:40.230,,24150,-40600,-191730
16:18:40.240,,19040,-33600,-194040
16:18:40.250,,20300,-27860,-204190
16:18:40.260,,34510,-28000,-209580
16:18:40.270,,42630,-32060,-212310
16:18:40.280,,46340,-38500,-213010
16:18:40.290,,44450,-45150,-212940
16:18:40.300,,38080,-48370,-212030
16:18:40.310,,27860,-46550,-209930
16:18:40.320,,15820,-40320,-208880
16:18:40.330,,7770,-31500,-208250
16:18:40.340,,8330,-22680,-206990
16:18:40.350,,16660,-17430,-205030
16:18:40.360,,25970,-17290,-202790
16:18:40.370,,30170,-20650,-199990
16:18:40.380,,25760,-18340,-196350
16:18:40.390,,2660,-8260,-199080
16:18:40.400,,3080,3570,-203910
16:18:40.410,,17990,9800,-207130
16:18:40.420,,37520,6860,-208040
16:18:40.430,,49560,-3290,-207060
16:18:40.440,,50470,-15470,-205100
16:18:40.450,,41160,-23730,-202090
16:18:40.460,,26530,-24990,-197470
16:18:40.470,,12320,-20440,-192080
16:18:40.480,,3080,-13230,-189000
16:18:40.490,,1750,-7280,-189350
16:18:40.500,,4690,-4830,-189910
16:18:40.510,,4130,-3850,-191800
16:18:40.520,,980,-2590,-193200
16:18:40.530,,-1540,1680,-193900
16:18:40.540,,2030,7140,-191170
16:18:40.550,,12670,10500,-189630
16:18:40.560,,21840,11690,-191520
16:18:40.570,,28140,10640,-191590
16:18:40.580,,28560,8750,-189560
16:18:40.590,,22890,8470,-186340
16:18:40.600,,13720,11550,-183890
16:18:40.610,,6860,16870,-182000
16:18:40.620,,7560,21070,-178780
16:18:40.630,,12390,21140,-175210
16:18:40.640,,19670,16800,-173530
16:18:40.650,,19460,18200,-174510
16:18:40.660,,17080,22960,-170870
16:18:40.670,,14630,28140,-163870
16:18:40.680,,11200,32830,-157360
16:18:40.690,,6510,34720,-150710
16:18:40.700,,1190,31150,-140210
16:18:40.710,,-2800,23170,-129010
16:18:40.720,,-8960,14560,-114030
16:18:40.841,,-3710,-21700,101010
16:18:40.842,,-3710,-21700,101010
16:18:40.844,,-3710,-21700,101010
16:18:40.845,,-5810,-21700,110390
16:18:40.846,,-5810,-21700,110390
16:18:40.848,,-5810,-21700,110390
16:18:40.849,,-5810,-21700,110390
16:18:40.850,,-5810,-21700,110390
16:18:40.852,,-5810,-21700,110390
16:18:40.853,,-5810,-21280,118230
16:18:40.855,,-4550,-21280,118230
16:18:40.856,,-4550,-21280,118230
16:18:40.857,,-4550,-21280,118230
16:18:40.860,,-4550,-21280,118230
16:18:40.870,,-2240,-20160,125160
16:18:40.880,,-2380,-18200,131110
16:18:40.890,,-3850,-16800,139510
16:18:40.900,,-12880,-17850,144130
16:18:40.910,,-18200,-19390,148260
16:18:40.920,,-21420,-20230,151340
16:18:40.930,,-22260,-20440,154420
16:18:40.940,,-22260,-20020,157570
16:18:40.950,,-22680,-18550,161770
16:18:40.960,,-23660,-16660,166390
16:18:40.970,,-24780,-14910,170240
16:18:40.980,,-25550,-13860,173670
16:18:40.990,,-25340,-12880,177940
16:18:41.000,,-23870,-11690,183120
16:18:41.010,,-22470,-10080,187390
16:18:41.020,,-20650,-5880,193550
16:18:41.030,,-17080,-4060,195720
16:18:41.040,,-16520,-1960,197540
16:18:41.050,,-15190,280,198100
16:18:41.060,,-14560,2380,199850
16:18:41.070,,-16450,3920,200550
16:18:41.080,,-19040,5880,200690
16:18:41.090,,-20300,8540,201320
16:18:41.100,,-19810,11200,201810
16:18:41.110,,-17430,12740,200760
16:18:41.120,,-13860,12320,198310
16:18:41.130,,-11410,11550,195650
16:18:41.140,,-11690,11690,193480
16:18:41.150,,-20510,9730,189000
16:18:41.160,,-27440,8190,186970
16:18:41.170,,-33810,7980,184800
16:18:41.180,,-38220,8120,182350
16:18:41.190,,-40040,8260,180810
16:18:41.200,,-39130,8610,180320
16:18:41.210,,-36960,9380,180040
16:18:41.220,,-32970,10990,179970
16:18:41.230,,-27440,12040,180460
16:18:41.240,,-20860,12250,180740
16:18:41.250,,-14420,11550,181370
16:18:41.260,,-9870,9940,182770
16:18:41.270,,-8960,8750,184660
16:18:41.280,,-17010,8470,189700
16:18:41.290,,-21420,9240,192570
16:18:41.300,,-23870,10920,195440
16:18:41.310,,-24570,13440,198730
16:18:41.320,,-22750,14840,201880
16:18:41.330,,-18200,14490,205660
16:18:41.340,,-12810,13370,211050
16:18:41.350,,-9240,11900,217350
16:18:41.360,,-8330,9940,223230
16:18:41.370,,-11340,9520,229250
16:18:41.380,,-18340,13650,234780
16:18:41.390,,-24010,20160,239260
16:18:41.400,,-24430,26320,242830
16:18:41.410,,-10850,35420,249900
16:18:41.420,,-3360,39690,252560
16:18:41.430,,280,42140,253190
16:18:41.440,,140,42840,251650
16:18:41.450,,-1330,44940,249130
16:18:41.460,,-1540,49910,244860
16:18:41.470,,-630,57050,237090
16:18:41.480,,840,65590,224560
16:18:41.490,,1330,73640,208880
16:18:41.500,,-1190,78750,193130
16:18:41.510,,-6580,80990,180530
16:18:41.520,,-12600,81830,172550
16:18:41.530,,-17360,83020,168560
16:18:41.540,,-17220,84210,164780
16:18:41.550,,-9100,82600,161350
16:18:41.560,,5600,82670,155330
16:18:41.570,,22680,82460,147420
16:18:41.580,,35630,80850,138810
16:18:41.590,,44240,77840,130130
16:18:41.600,,51940,73920,121450
16:18:41.610,,59080,70910,114450
16:18:41.620,,51660,72590,111160
16:18:41.630,,67830,68740,91980
16:18:41.640,,80640,68040,72240
16:18:41.650,,70490,68880,52220
16:18:41.660,,53270,63210,17500
16:18:41.670,,16380,35980,2310
16:18:41.680,,-6720,24010,-9100
16:18:41.690,,-13930,6790,-22680
16:18:41.700,,-5810,-10220,-39200
16:18:41.710,,8050,-26180,-52430
16:18:41.720,,23170,-41510,-62510
16:18:41.730,,33740,-54390,-72520
16:18:41.740,,34650,-63490,-83090
16:18:41.750,,28420,-69790,-92470
16:18:41.760,,17360,-72660,-98840
16:18:41.770,,4340,-72520,-104160
16:18:41.780,,-3570,-71610,-112000
16:18:41.790,,-2100,-69790,-133630
16:18:41.800,,11690,-70630,-143640
16:18:41.810,,21140,-73500,-152810
16:18:41.820,,30660,-77700,-160580
16:18:41.830,,38360,-82320,-166040
16:18:41.840,,44170,-88410,-169260
16:18:41.850,,47670,-94150,-170310
16:18:41.860,,47810,-97510,-171290
16:18:41.870,,45710,-98490,-173670
16:18:41.880,,44030,-98420,-177240
16:18:41.890,,42420,-98980,-182490
16:18:41.900,,39620,-100170,-188580
16:18:41.910,,36120,-101920,-195160
16:18:41.920,,28980,-108500,-208600
16:18:41.930,,27160,-108500,-212030
16:18:41.940,,27650,-103250,-212590
16:18:42.066,,17500,-26040,-200690
16:18:42.067,,17500,-26040,-200690
16:18:42.069,,17010,-27370,-199990
16:18:42.070,,17010,-27370,-199990
16:18:42.071,,17010,-27370,-199990
16:18:42.073,,17010,-27370,-199990
16:18:42.074,,17010,-27370,-199990
16:18:42.075,,17010,-27370,-199990
16:18:42.077,,17010,-27370,-199990
16:18:42.078,,11130,-26180,-199010
16:18:42.080,,11130,-26180,-199010
16:18:42.081,,11130,-26180,-199010
16:18:42.082,,11130,-26180,-199010
16:18:42.084,,11130,-26180,-199010
16:18:42.090,,6300,-23170,-198030
16:18:42.100,,7980,-19880,-196910
16:18:42.110,,17010,-19180,-194600
16:18:42.120,,29470,-21350,-190470
16:18:42.130,,39760,-24500,-187180
16:18:42.140,,44450,-28070,-185430
16:18:42.150,,41510,-31290,-183680
16:18:42.160,,33390,-32130,-180250
16:18:42.170,,23870,-30870,-174860
16:18:42.180,,7210,-19880,-165340
16:18:42.190,,10920,-12810,-163100
16:18:42.200,,24570,-10640,-160930
16:18:42.210,,40390,-14350,-158900
16:18:42.220,,49490,-20790,-156870
16:18:42.230,,48650,-26600,-154840
16:18:42.240,,35280,-29260,-153580
16:18:42.250,,11410,-27090,-153090
16:18:42.260,,-16100,-17430,-155890
16:18:42.270,,-30100,-2730,-163030
16:18:42.280,,-19180,9170,-169890
16:18:42.290,,8680,12040,-173880
16:18:42.300,,36610,6090,-175350
16:18:42.310,,53130,-12040,-171150
16:18:42.320,,39340,-14350,-164360
16:18:42.330,,13650,-10010,-157710
16:18:42.340,,-13370,2450,-155400
16:18:42.350,,-21910,18270,-158690
16:18:42.360,,-6440,28140,-162960
16:18:42.370,,21490,28420,-167440
16:18:42.380,,47390,22260,-170100
16:18:42.390,,60200,14140,-169890
16:18:42.400,,58100,7350,-167650
16:18:42.410,,46760,5810,-165340
16:18:42.420,,32480,10430,-168000
16:18:42.430,,22400,19040,-176050
16:18:42.440,,21140,16660,-181090
16:18:42.450,,19250,11480,-184310
16:18:42.460,,14140,7420,-185430
16:18:42.470,,5390,6860,-184590
16:18:42.480,,-3570,8260,-181720
16:18:42.490,,-10360,11200,-175700
16:18:42.500,,-17780,16030,-166600
16:18:42.510,,-17150,20020,-158060
16:18:42.520,,-10500,22260,-150290
16:18:42.530,,1610,23730,-141120
16:18:42.540,,14420,24850,-130060
16:18:42.550,,23380,24360,-115710
16:18:42.560,,24430,16870,-73430
16:18:42.570,,1820,13090,-47390
16:18:42.580,,-11620,10290,-23240
16:18:42.590,,-15960,5740,-1120
16:18:42.600,,-11970,-840,20230
16:18:42.610,,-6230,-8470,40810
16:18:42.620,,-4340,-15890,59990
16:18:42.630,,-6020,-20300,77980
16:18:42.640,,-8120,-20790,94710
16:18:42.650,,-8260,-20090,109620
16:18:42.660,,-6580,-19600,122220
16:18:42.670,,-3430,-19110,132860
16:18:42.680,,910,-18900,141260
16:18:42.690,,840,-18480,154070
16:18:42.700,,-4620,-17500,160230
16:18:42.710,,-11130,-17500,165830
16:18:42.720,,-15960,-17710,171010
16:18:42.730,,-19180,-17290,174860
16:18:42.740,,-21420,-17430,176610
16:18:42.750,,-21980,-18130,176330
16:18:42.760,,-21350,-18970,175770
16:18:42.770,,-20090,-19950,175770
16:18:42.780,,-19740,-20580,176400
16:18:42.790,,-20720,-20650,177940
16:18:42.800,,-23380,-20090,179690
16:18:42.810,,-28000,-18830,181370
16:18:42.820,,-35560,-14490,183330
16:18:42.830,,-34860,-12740,183820
16:18:42.840,,-33670,-12320,183820
16:18:42.850,,-34300,-12040,184870
16:18:42.860,,-35140,-10570,185780
16:18:42.870,,-35210,-8820,187040
16:18:42.880,,-35210,-7490,188930
16:18:42.890,,-35840,-6720,191800
16:18:42.900,,-37450,-5530,194390
16:18:42.910,,-38710,-3920,195650
16:18:42.920,,-37940,-3290,196140
16:18:42.930,,-35980,-3290,196280
16:18:42.940,,-34160,-3150,195580
16:18:42.950,,-33670,-4620,191730
16:18:42.960,,-36190,-6090,189490
16:18:42.970,,-41230,-6230,187390
16:18:42.980,,-47670,-3990,185570
16:18:42.990,,-52640,-1190,184030
16:18:43.000,,-54950,630,183330
16:18:43.010,,-53900,1330,183540
16:18:43.020,,-49910,980,184590
16:18:43.030,,-44520,140,186270
16:18:43.040,,-39970,-560,188580
16:18:43.050,,-37240,-770,191380
16:18:43.060,,-35980,560,193830
16:18:43.070,,-35070,3780,197610
16:18:43.080,,-33530,10920,197400
16:18:43.090,,-33880,14770,194670
16:18:43.100,,-33250,17920,189490
16:18:43.110,,-31570,19250,183960
16:18:43.120,,-31010,18410,177030
16:18:43.130,,-30730,15610,170730
16:18:43.251,,-13370,9310,131530
16:18:43.252,,-13370,9310,131530
16:18:43.254,,-13370,9310,131530
16:18:43.255,,-13370,9310,131530
16:18:43.257,,-16800,8680,127750
16:18:43.258,,-16800,8680,127750
16:18:43.259,,-16800,8680,127750
16:18:43.261,,-16800,8680,127750
16:18:43.262,,-16800,8680,127750
16:18:43.263,,-16800,8680,127750
16:18:43.265,,-16800,7490,124110
16:18:43.266,,-21350,7490,124110
16:18:43.268,,-21350,7490,124110
16:18:43.270,,-21350,7490,124110
16:18:43.280,,-25550,6720,119770
16:18:43.290,,-29540,6090,115220
16:18:43.300,,-35070,4970,112000
16:18:43.310,,-41860,3640,110250
16:18:43.320,,-49490,2100,109410
16:18:43.330,,-64470,-4060,109060
16:18:43.340,,-72520,-8050,107870
16:18:43.350,,-81410,-11410,106120
16:18:43.360,,-91630,-14280,103390
16:18:43.370,,-102270,-16800,99190
16:18:43.380,,-113820,-20930,93520
16:18:43.390,,-125650,-25340,87990
16:18:43.400,,-137970,-27860,83440
16:18:43.410,,-148540,-27440,81480
16:18:43.420,,-152250,-22330,83860
16:18:43.430,,-144900,-12950,87780
16:18:43.440,,-122920,-4060,90300
16:18:43.450,,-85610,2450,93870
16:18:43.460,,-25130,23520,97160
16:18:43.470,,-7210,32060,90720
16:18:43.480,,16240,32620,80850
16:18:43.490,,30590,34160,81760
16:18:43.500,,33740,39550,79660
16:18:43.510,,34230,43540,71540
16:18:43.520,,38570,44240,63770
16:18:43.530,,46550,42070,52570
16:18:43.540,,59500,40460,37660
16:18:43.550,,78610,41930,27860
16:18:43.560,,98210,44940,13930
16:18:43.570,,111860,42350,-1400
16:18:43.580,,114310,34230,-16450
16:18:43.590,,94710,18060,-41020
16:18:43.600,,84350,10710,-52080
16:18:43.610,,77210,3150,-61040
16:18:43.620,,72520,-4480,-68810
16:18:43.630,,70630,-12040,-76300
16:18:43.640,,71050,-18060,-82530
16:18:43.650,,73850,-22260,-88130
16:18:43.660,,77420,-26180,-95340
16:18:43.670,,80150,-30380,-103040
16:18:43.680,,80780,-33180,-110040
16:18:43.690,,79660,-34020,-115780
16:18:43.700,,80220,-34300,-119280
16:18:43.710,,82320,-34020,-129640
16:18:43.720,,83860,-35280,-132650
16:18:43.730,,81200,-37800,-135660
16:18:43.740,,76720,-39760,-140280
16:18:43.750,,71820,-40810,-145600
16:18:43.760,,68250,-42070,-150430
16:18:43.770,,66990,-43890,-155050
16:18:43.780,,68320,-46830,-160160
16:18:43.790,,70910,-50960,-165690
16:18:43.800,,71680,-54530,-170800
16:18:43.810,,70280,-56700,-175910
16:18:43.820,,67690,-58170,-181370
16:18:43.830,,61670,-59010,-186830
16:18:43.840,,52220,-58310,-191730
16:18:43.850,,40530,-51030,-193480
16:18:43.860,,42490,-47180,-195440
16:18:43.870,,45430,-46200,-196630
16:18:43.880,,47320,-47530,-195790
16:18:43.890,,48720,-49630,-192710
16:18:43.900,,48510,-50540,-193060
16:18:43.910,,41370,-47670,-193830
16:18:43.920,,34580,-43190,-193340
16:18:43.930,,30590,-36960,-192640
16:18:43.940,,29260,-29120,-192920
16:18:43.950,,30450,-22050,-192150
16:18:43.960,,33530,-18830,-189490
16:18:43.970,,35210,-21350,-180040
16:18:43.980,,26390,-20370,-175840
16:18:43.990,,21490,-15890,-172620
16:18:44.000,,24080,-9800,-169260
16:18:44.010,,35140,-5110,-166250
16:18:44.020,,51380,-4690,-163590
16:18:44.030,,66010,-9660,-161070
16:18:44.040,,72240,-18620,-159530
16:18:44.050,,65800,-28420,-158550
16:18:44.060,,46340,-36680,-156870
16:18:44.070,,18690,-39970,-156310
16:18:44.080,,-4480,-36330,-159600
16:18:44.090,,-9730,-31360,-163520
16:18:44.100,,18130,-35980,-169890
16:18:44.110,,28840,-42070,-170940
16:18:44.120,,27160,-46270,-170590
16:18:44.130,,10570,-46270,-169400
16:18:44.140,,-18060,-40810,-169960
16:18:44.150,,-47950,-29120,-175560
16:18:44.160,,-63210,-14490,-182770
16:18:44.170,,-56770,-3780,-186760
16:18:44.180,,-35770,490,-187390
16:18:44.190,,-11200,-2030,-185640
16:18:44.200,,4410,-8680,-181370
16:18:44.210,,3990,-14630,-176400
16:18:44.220,,-8610,-16030,-172900
16:18:44.230,,-32410,-5040,-169190
16:18:44.240,,-29750,2800,-167300
16:18:44.250,,-13930,5810,-164640
16:18:44.260,,5950,2730,-163660
16:18:44.270,,16380,-630,-163520
16:18:44.280,,15680,-2240,-163240
16:18:44.290,,8330,-980,-162470
16:18:44.300,,-5110,2870,-164150
16:18:44.310,,-17290,7840,-165690
16:18:44.320,,-20510,11270,-165410
16:18:44.330,,-16030,12390,-165200
16:18:44.340,,-7000,11340,-164220
16:18:44.466,,7000,25830,-85820
16:18:44.467,,7000,25830,-85820
16:18:44.469,,7000,25830,-85820
16:18:44.470,,7000,25830,-85820
16:18:44.471,,8890,18060,-71960
16:18:44.473,,8890,18060,-71960
16:18:44.474,,8890,18060,-71960
16:18:44.475,,8890,18060,-71960
16:18:44.477,,8890,18060,-71960
16:18:44.478,,8890,18060,-71960
16:18:44.479,,8890,18060,-71960
16:18:44.481,,10780,10430,-56840
16:18:44.482,,10780,10430,-56840
16:18:44.484,,10780,10430,-56840
16:18:44.490,,13300,4200,-41020
16:18:44.500,,15260,-770,-25130
16:18:44.510,,14350,-3710,-9590
16:18:44.520,,10570,-4900,4690
16:18:44.530,,6440,-5530,18830
16:18:44.540,,2730,-7210,33880
16:18:44.550,,-490,-9310,50050
16:18:44.560,,-2380,-11130,66430
16:18:44.570,,-1540,-12250,81130
16:18:44.580,,1610,-13020,94640
16:18:44.590,,5670,-13580,108220
16:18:44.600,,9730,-14420,121450
16:18:44.610,,12740,-17640,146790
16:18:44.620,,12250,-19460,158550
16:18:44.630,,10920,-20790,169050
16:18:44.640,,9590,-21070,177800
16:18:44.650,,7980,-19810,184240
16:18:44.660,,5670,-17570,188440
16:18:44.670,,2030,-14980,191310
16:18:44.680,,-3290,-12390,193200
16:18:44.690,,-10780,-9730,194810
16:18:44.700,,-19110,-6580,196210
16:18:44.710,,-24640,-3080,197820
16:18:44.720,,-26040,-70,200480
16:18:44.730,,-23310,1540,202860
16:18:44.740,,-13720,1610,206360
16:18:44.750,,-10360,1960,208040
16:18:44.760,,-7280,2310,208810
16:18:44.770,,-5670,2660,209160
16:18:44.780,,-6790,3500,209440
16:18:44.790,,-10430,5180,208320
16:18:44.800,,-14000,7490,206150
16:18:44.810,,-17080,9520,202370
16:18:44.820,,-20790,10430,197750
16:18:44.830,,-24290,10780,193480
16:18:44.840,,-27230,11690,189980
16:18:44.850,,-29750,13020,187950
16:18:44.860,,-31920,14840,185920
16:18:44.870,,-33460,16660,179410
16:18:44.880,,-32900,16590,175630
16:18:44.890,,-32480,17360,172060
16:18:44.900,,-31710,19110,169190
16:18:44.910,,-30590,21840,167440
16:18:44.920,,-29190,24150,166810
16:18:44.930,,-27790,24780,167230
16:18:44.940,,-27160,24220,168070
16:18:44.950,,-27370,23590,168280
16:18:44.960,,-26880,23240,167230
16:18:44.970,,-24220,23310,166950
16:18:44.980,,-21140,22960,167720
16:18:44.990,,-20160,22960,168980
16:18:45.000,,-29400,24500,175560
16:18:45.010,,-36190,26110,180740
16:18:45.020,,-40390,27930,185780
16:18:45.030,,-40950,30240,189490
16:18:45.040,,-38780,32480,191520
16:18:45.050,,-34510,33950,192780
16:18:45.060,,-28910,34160,194250
16:18:45.070,,-23520,32760,194740
16:18:45.080,,-20020,29260,192220
16:18:45.090,,-18410,24360,189910
16:18:45.100,,-20440,20650,188860
16:18:45.110,,-24920,19250,188440
16:18:45.120,,-27440,18970,187460
16:18:45.130,,-20160,19390,187810
16:18:45.140,,-13090,19110,188370
16:18:45.150,,-6440,17220,188440
16:18:45.160,,-1680,15400,188090
16:18:45.170,,1890,15190,187670
16:18:45.180,,5110,16590,187670
16:18:45.190,,4900,17920,187250
16:18:45.200,,770,19110,186480
16:18:45.210,,-5600,21000,183330
16:18:45.220,,-14000,24780,177800
16:18:45.230,,-24990,29680,171080
16:18:45.240,,-36540,33110,165690
16:18:45.250,,-43960,34860,162400
16:18:45.260,,-42070,32130,161140
16:18:45.270,,-37310,29050,158480
16:18:45.280,,-30870,26880,155190
16:18:45.290,,-23940,25200,150990
16:18:45.300,,-18410,22400,145110
16:18:45.310,,-15260,19600,137620
16:18:45.320,,-17080,16520,128170
16:18:45.330,,-25550,11760,117810
16:18:45.340,,-39410,6160,110110
16:18:45.350,,-55440,2940,109550
16:18:45.360,,-65730,1470,113190
16:18:45.370,,-68600,0,117040
16:18:45.380,,-63420,1820,129080
16:18:45.390,,-36540,2800,120470
16:18:45.400,,-9520,3290,106750
16:18:45.410,,-2870,4970,98210
16:18:45.420,,-16240,10220,92610
16:18:45.430,,-40110,17430,90720
16:18:45.440,,-56630,17640,84770
16:18:45.450,,-60760,14280,81340
16:18:45.460,,-60270,18760,76510
16:18:45.470,,-50610,26530,69090
16:18:45.480,,-23030,30520,58380
16:18:45.490,,18410,29400,42070
16:18:45.500,,51240,27650,22890
16:18:45.510,,58730,14910,-16590
16:18:45.520,,50120,1960,-40810
16:18:45.530,,34300,-9030,-64330
16:18:45.540,,14420,-17850,-85540
16:18:45.550,,-910,-26600,-106400
16:18:45.560,,-9030,-36330,-128240
16:18:45.570,,-13720,-44660,-146370
16:18:45.691,,60060,-38290,-194530
16:18:45.692,,60060,-38290,-194530
16:18:45.693,,60060,-38290,-194530
16:18:45.695,,60060,-38290,-194530
16:18:45.696,,62930,-39760,-196210
16:18:45.697,,62930,-39760,-196210
16:18:45.699,,62930,-39760,-196210
16:18:45.700,,62930,-39760,-196210
16:18:45.702,,62930,-39760,-196210
16:18:45.703,,62930,-39760,-196210
16:18:45.704,,62930,-42630,-196560
16:18:45.706,,63910,-42630,-196560
16:18:45.707,,63910,-42630,-196560
16:18:45.710,,63910,-42630,-196560
16:18:45.720,,61880,-46200,-196140
16:18:45.730,,56560,-48720,-195510
16:18:45.740,,48020,-48720,-195720
16:18:45.750,,38780,-47110,-197680
16:18:45.760,,30380,-45150,-200130
16:18:45.770,,23170,-39340,-201320
16:18:45.780,,21560,-34160,-201110
16:18:45.790,,22120,-30310,-201740
16:18:45.800,,24080,-28980,-202510
16:18:45.810,,24150,-28210,-204330
16:18:45.820,,20370,-27090,-206290
16:18:45.830,,14210,-26530,-208180
16:18:45.840,,8190,-26530,-209090
16:18:45.850,,2030,-25830,-208390
16:18:45.860,,-6020,-22680,-207340
16:18:45.870,,-11340,-17290,-205170
16:18:45.880,,-11060,-11270,-202510
16:18:45.890,,-6720,-5530,-194600
16:18:45.900,,11900,0,-190260
16:18:45.910,,22400,-840,-185780
16:18:45.920,,30310,-2030,-180880
16:18:45.930,,33880,-2170,-175980
16:18:45.940,,32690,-280,-171010
16:18:45.950,,29820,3710,-167510
16:18:45.960,,31850,8050,-164850
16:18:45.970,,40250,10780,-160930
16:18:45.980,,49910,10920,-156310
16:18:45.990,,54460,9870,-151620
16:18:46.000,,52080,8680,-146720
16:18:46.010,,42980,7490,-142450
16:18:46.020,,28000,8750,-139160
16:18:46.030,,-4060,8960,-139440
16:18:46.040,,-12110,9030,-141610
16:18:46.050,,-9660,7490,-143290
16:18:46.060,,-2100,4970,-142310
16:18:46.070,,3360,2100,-138950
16:18:46.080,,7980,420,-133770
16:18:46.090,,14630,-560,-128240
16:18:46.100,,21630,-1400,-123060
16:18:46.110,,24850,-910,-119770
16:18:46.120,,23450,1540,-118930
16:18:46.130,,22050,3570,-120190
16:18:46.140,,22960,3080,-122150
16:18:46.150,,26250,-420,-127960
16:18:46.160,,35350,-2310,-128170
16:18:46.170,,39340,-4970,-126840
16:18:46.180,,39830,-7700,-124670
16:18:46.190,,34650,-7070,-123690
16:18:46.200,,27790,-5250,-125650
16:18:46.210,,23520,-4270,-129150
16:18:46.220,,22050,-4410,-131880
16:18:46.230,,23030,-6230,-132790
16:18:46.240,,24430,-8470,-133350
16:18:46.250,,23870,-9660,-134190
16:18:46.260,,19740,-9730,-135800
16:18:46.270,,15050,-9100,-138040
16:18:46.280,,10920,-4200,-146720
16:18:46.290,,20930,-2170,-146790
16:18:46.300,,31920,-2730,-143150
16:18:46.310,,37870,-3500,-136920
16:18:46.320,,36540,-2940,-129850
16:18:46.330,,30450,-1120,-123970
16:18:46.340,,21280,2100,-121240
16:18:46.350,,11480,6440,-123060
16:18:46.360,,6090,10220,-128100
16:18:46.370,,7000,10990,-131110
16:18:46.380,,10780,10640,-129500
16:18:46.390,,14000,11690,-124250
16:18:46.400,,13790,14840,-114380
16:18:46.410,,16170,13510,-98140
16:18:46.420,,15610,10360,-92400
16:18:46.430,,13510,8260,-84700
16:18:46.440,,9240,8750,-76510
16:18:46.449,,7000,9450,-68250
16:18:46.460,,3500,10360,-59080
16:18:46.470,,-1470,10780,-48230
16:18:46.479,,-6370,10640,-35280
16:18:46.490,,-8960,9660,-21210
16:18:46.500,,-9170,9310,-7210
16:18:46.509,,-7980,8680,5460
16:18:46.520,,-4900,6160,18130
16:18:46.530,,-910,1960,31500
16:18:46.539,,5110,-5530,57260
16:18:46.550,,5530,-7980,66150
16:18:46.560,,5180,-10640,72310
16:18:46.569,,3360,-12950,77980
16:18:46.580,,-1470,-14070,84770
16:18:46.590,,-7560,-14490,92470
16:18:46.599,,-12250,-14770,100590
16:18:46.610,,-14000,-15470,109060
16:18:46.619,,-12880,-15890,117530
16:18:46.629,,-11060,-16240,125020
16:18:46.640,,-9520,-16380,131460
16:18:46.649,,-9030,-16240,136710
16:18:46.659,,-10150,-16170,142730
16:18:46.670,,-17220,-15190,144550
16:18:46.679,,-19880,-13300,147000
16:18:46.689,,-21420,-11340,149940
16:18:46.700,,-21630,-9800,152950
16:18:46.709,,-19530,-8610,156240
16:18:46.719,,-16660,-7560,159810
16:18:46.730,,-15610,-6720,163240
16:18:46.739,,-16730,-5110,166460
16:18:46.749,,-18270,-2170,169890
16:18:46.759,,-19250,560,173250
16:18:46.769,,-20300,1610,176260
16:18:46.779,,-22610,1260,178080
16:18:46.789,,-26950,630,180040
16:18:46.915,,-25550,13230,210560
16:18:46.917,,-25550,13230,210560
16:18:46.918,,-25550,13230,210560
16:18:46.920,,-20720,12810,209650
16:18:46.921,,-20720,12810,209650
16:18:46.922,,-20720,12810,209650
16:18:46.924,,-20720,12810,209650
16:18:46.925,,-20720,12810,209650
16:18:46.926,,-20720,12810,209650
16:18:46.928,,-20720,12810,209650
16:18:46.929,,-15190,11550,207550
16:18:46.931,,-15190,11550,207550
16:18:46.932,,-15190,11550,207550
16:18:46.933,,-15190,11550,207550
16:18:46.939,,-10500,10500,204680
16:18:46.949,,-6020,9590,200760
16:18:46.959,,-2520,8960,196350
16:18:46.969,,-1610,9940,191800
16:18:46.979,,-4900,12250,188020
16:18:46.989,,-11480,14350,184450
16:18:46.999,,-19320,15820,181580
16:18:47.009,,-26320,17570,178150
16:18:47.019,,-31850,19950,173250
16:18:47.029,,-35770,22330,167720
16:18:47.039,,-37940,23450,162400
16:18:47.049,,-39480,24080,150010
16:18:47.059,,-42350,26530,142380
16:18:47.069,,-44170,29050,135310
16:18:47.079,,-43470,29400,129990
16:18:47.089,,-42210,27510,125370
16:18:47.099,,-41370,25270,120540
16:18:47.109,,-39480,23660,115710
16:18:47.119,,-35700,21420,110740
16:18:47.129,,-31150,19250,106120
16:18:47.139,,-26600,17640,102830
16:18:47.149,,-22400,14910,101290
16:18:47.159,,-19880,11480,100730
16:18:47.169,,-18340,9380,100660
16:18:47.179,,-18690,8890,103040
16:18:47.189,,-21350,9100,105490
16:18:47.199,,-25060,8470,108080
16:18:47.209,,-29260,7280,109620
16:18:47.219,,-32830,6370,110600
16:18:47.229,,-35770,5810,111370
16:18:47.239,,-38990,6370,111930
16:18:47.249,,-42210,8960,112000
16:18:47.259,,-45150,10850,111020
16:18:47.269,,-48090,9660,109480
16:18:47.279,,-52150,4900,108150
16:18:47.289,,-59220,-2940,106680
16:18:47.299,,-69020,-10780,110320
16:18:47.309,,-84910,-15400,115430
16:18:47.319,,-87010,-16380,118300
16:18:47.329,,-84630,-16660,119700
16:18:47.339,,-78330,-16310,120190
16:18:47.349,,-69930,-17150,119490
16:18:47.359,,-63140,-18060,117320
16:18:47.369,,-60550,-17990,114940
16:18:47.379,,-58520,-16520,115220
16:18:47.389,,-51660,-12600,117740
16:18:47.399,,-38290,-6160,118930
16:18:47.409,,-21210,980,119490
16:18:47.419,,-7420,5950,120260
16:18:47.429,,17780,1820,86940
16:18:47.439,,23030,630,74760
16:18:47.449,,5810,1190,68600
16:18:47.459,,-10850,4130,64120
16:18:47.469,,-21350,7910,63140
16:18:47.479,,-15750,9310,57540
16:18:47.489,,6510,8330,42350
16:18:47.499,,32340,8960,23240
16:18:47.509,,46200,11200,3920
16:18:47.519,,46620,9380,-11340
16:18:47.529,,40600,1890,-25270
16:18:47.539,,31010,-7000,-38640
16:18:47.549,,21350,-12950,-52220
16:18:47.559,,15750,-20370,-77350
16:18:47.569,,13860,-21700,-87010
16:18:47.579,,14980,-20160,-96320
16:18:47.589,,14980,-17360,-104020
16:18:47.599,,12390,-15120,-109340
16:18:47.609,,9380,-13790,-112000
16:18:47.619,,8540,-12810,-114100
16:18:47.629,,10290,-11620,-116760
16:18:47.639,,12530,-10430,-118230
16:18:47.649,,15330,-9240,-119630
16:18:47.659,,18620,-7770,-122010
16:18:47.669,,21000,-6580,-125090
16:18:47.679,,21000,-5180,-127400
16:18:47.689,,20650,-560,-130410
16:18:47.699,,22540,1120,-132930
16:18:47.709,,25060,1960,-135870
16:18:47.719,,26880,2800,-138950
16:18:47.729,,28280,3500,-142380
16:18:47.739,,29960,4130,-145040
16:18:47.749,,32340,4760,-147000
16:18:47.759,,36470,5180,-148960
16:18:47.769,,42630,4900,-151620
16:18:47.779,,48930,3570,-152950
16:18:47.789,,48510,4200,-156170
16:18:47.799,,43820,4970,-157640
16:18:47.809,,41230,3080,-161280
16:18:47.819,,33390,-2240,-164360
16:18:47.829,,25480,-3430,-163030
16:18:47.839,,19390,-4550,-161840
16:18:47.849,,15680,-5670,-161560
16:18:47.859,,14560,-6440,-162050
16:18:47.869,,16170,-6230,-162610
16:18:47.879,,20160,-4550,-162470
16:18:47.889,,25270,-2380,-162540
16:18:47.899,,31010,-1190,-162820
16:18:47.909,,36260,-1400,-162470
16:18:47.919,,39550,-2870,-161070
16:18:47.929,,38640,-4480,-157850
16:18:47.939,,30380,-3640,-152740
16:18:47.949,,14700,9030,-145810
16:18:47.959,,21070,16100,-146510
16:18:47.969,,35700,19180,-148260
16:18:47.979,,52080,18760,-149520
16:18:47.989,,64260,15750,-149730
16:18:47.999,,68530,11130,-148890
16:18:48.009,,62860,6720,-146860
16:18:48.129,,-10570,-7630,-144550
16:18:48.130,,-10570,-7630,-144550
16:18:48.132,,-10570,-7630,-144550
16:18:48.133,,-10570,-7630,-144550
16:18:48.134,,-10570,-11690,-146300
16:18:48.136,,7840,-11690,-146300
16:18:48.137,,7840,-11690,-146300
16:18:48.139,,7840,-11690,-146300
16:18:48.140,,7840,-11690,-146300
16:18:48.141,,7840,-11690,-146300
16:18:48.143,,7840,-11690,-146300
16:18:48.144,,20440,-18620,-147770
16:18:48.145,,20440,-18620,-147770
16:18:48.149,,20440,-18620,-147770
16:18:48.159,,16030,-24570,-150150
16:18:48.169,,-4970,-26320,-152880
16:18:48.179,,-36540,-23590,-154700
16:18:48.189,,-70910,-15610,-156170
16:18:48.199,,-96250,10220,-163240
16:18:48.209,,-73990,16030,-167230
16:18:48.219,,-36750,15120,-169190
16:18:48.229,,-910,9730,-168140
16:18:48.239,,20650,4970,-163730
16:18:48.249,,23450,3500,-157220
16:18:48.259,,12110,5530,-149660
16:18:48.269,,-6090,10500,-142730
16:18:48.279,,-20790,18410,-140000
16:18:48.289,,-19810,26320,-140980
16:18:48.299,,-2730,28420,-141540
16:18:48.309,,17780,24570,-140490
16:18:48.319,,31080,20370,-137200
16:18:48.329,,31290,16030,-133070
16:18:48.339,,23030,16590,-126280
16:18:48.349,,9940,19250,-120400
16:18:48.359,,490,23310,-117530
16:18:48.369,,5040,25620,-116620
16:18:48.379,,23660,22050,-116340
16:18:48.389,,44660,14910,-116480
16:18:48.399,,53970,10500,-115850
16:18:48.409,,52220,11340,-113610
16:18:48.419,,45500,14770,-112070
16:18:48.429,,36680,19110,-110810
16:18:48.439,,29470,23030,-109550
16:18:48.449,,23660,26250,-107520
16:18:48.459,,17920,28630,-103110
16:18:48.469,,14910,29260,-100100
16:18:48.479,,16380,28980,-97580
16:18:48.489,,17360,27510,-92890
16:18:48.499,,18270,26740,-85400
16:18:48.509,,18620,24500,-74270
16:18:48.519,,14700,20300,-61110
16:18:48.529,,7210,15330,-45710
16:18:48.539,,-1470,11410,-29820
16:18:48.549,,-8120,9730,-15050
16:18:48.559,,-9240,8190,-2100
16:18:48.569,,-5040,5110,9730
16:18:48.579,,770,630,20930
16:18:48.589,,6790,-5250,41300
16:18:48.599,,4970,-7280,51030
16:18:48.609,,1750,-10360,60970
16:18:48.619,,-2450,-12250,70000
16:18:48.629,,-6720,-12320,78050
16:18:48.639,,-10570,-12950,86940
16:18:48.649,,-13930,-14350,96110
16:18:48.659,,-15120,-15330,104790
16:18:48.669,,-13440,-16520,112420
16:18:48.679,,-10640,-18130,119140
16:18:48.689,,-8330,-18970,124810
16:18:48.699,,-7210,-18900,129500
16:18:48.709,,-6650,-19250,137690
16:18:48.719,,-9800,-19040,140630
16:18:48.729,,-12810,-17710,142520
16:18:48.739,,-16030,-16240,144130
16:18:48.749,,-19810,-14910,144970
16:18:48.759,,-23380,-14280,145180
16:18:48.769,,-25060,-13510,145320
16:18:48.779,,-24220,-12530,146020
16:18:48.789,,-21210,-12250,146930
16:18:48.799,,-18690,-12320,147840
16:18:48.809,,-17500,-11830,149450
16:18:48.819,,-16940,-10150,151830
16:18:48.829,,-17290,-7350,154980
16:18:48.839,,-17570,-4270,159600
16:18:48.849,,-12320,-980,159740
16:18:48.859,,-10920,-770,157850
16:18:48.869,,-12600,-770,156940
16:18:48.879,,-16800,-420,156800
16:18:48.889,,-20300,420,157080
16:18:48.899,,-21840,630,158130
16:18:48.909,,-22120,980,159530
16:18:48.919,,-20160,2730,160790
16:18:48.929,,-16450,4550,161840
16:18:48.939,,-11480,5530,162680
16:18:48.949,,-8330,5740,162540
16:18:48.959,,-9030,6160,161350
16:18:48.969,,-12110,6860,158200
16:18:48.979,,-23170,6790,155540
16:18:48.989,,-28140,5600,152460
16:18:48.999,,-31150,4620,149730
16:18:49.009,,-32900,4270,148120
16:18:49.019,,-33460,3220,148050
16:18:49.029,,-33110,1120,149450
16:18:49.039,,-31010,-770,151690
16:18:49.049,,-25270,-1680,154630
16:18:49.059,,-17360,-1400,158620
16:18:49.069,,-11410,-560,162750
16:18:49.079,,-8890,-560,166040
16:18:49.089,,-8470,-910,168700
16:18:49.099,,-9730,-1470,169610
16:18:49.109,,-12390,-2870,167930
16:18:49.119,,-16730,-4410,165270
16:18:49.129,,-22260,-5950,161420
16:18:49.139,,-27160,-7910,157220
16:18:49.149,,-32410,-9030,153930
16:18:49.159,,-40250,-8680,151900
16:18:49.169,,-46970,-7910,150150
16:18:49.179,,-47950,-7000,147560
16:18:49.189,,-42350,-6930,144970
16:18:49.199,,-36120,-7490,143780
16:18:49.209,,-29330,-9240,143220
16:18:49.219,,-23940,-10920,142380
16:18:49.229,,-19180,-12390,141750
16:18:49.354,,-22190,8120,67480
16:18:49.355,,-22190,8120,67480
16:18:49.356,,-22190,8120,67480
16:18:49.358,,-22190,8120,67480
16:18:49.359,,-21770,8960,53200
16:18:49.360,,-21770,8960,53200
16:18:49.362,,-21770,8960,53200
16:18:49.363,,-21770,8960,53200
16:18:49.365,,-21770,8960,53200
16:18:49.366,,-21770,8960,53200
16:18:49.367,,-21770,8960,53200
16:18:49.369,,-20930,10920,40740
16:18:49.370,,-20930,10920,40740
16:18:49.371,,-20930,10920,40740
16:18:49.379,,-22540,14000,31570
16:18:49.389,,-28910,15960,24920
16:18:49.399,,-37380,15750,18410
16:18:49.409,,-43680,13790,12040
16:18:49.419,,-45640,11410,8960
16:18:49.429,,-45990,9730,9730
16:18:49.439,,-45570,9380,14420
16:18:49.449,,-44520,12180,20510
16:18:49.459,,-39480,16590,25900
16:18:49.469,,-25060,19880,30730
16:18:49.479,,-5950,20790,37940
16:18:49.489,,20650,17500,40460
16:18:49.499,,24080,13650,44240
16:18:49.509,,21770,9940,51030
16:18:49.519,,17010,7070,59710
16:18:49.529,,12110,6790,68250
16:18:49.539,,9100,9590,71050
16:18:49.549,,15680,10290,68180
16:18:49.559,,22400,11340,72520
16:18:49.569,,27230,13720,70910
16:18:49.579,,28700,16170,70560
16:18:49.589,,25410,16520,71330
16:18:49.599,,24710,16310,68460
16:18:49.609,,29260,16380,58870
16:18:49.619,,30240,16240,53760
16:18:49.629,,30240,13300,45710
16:18:49.639,,34930,8470,34160
16:18:49.649,,43890,2310,21420
16:18:49.659,,51030,-3990,8050
16:18:49.669,,47670,-8750,-2170
16:18:49.679,,36260,-13650,-12040
16:18:49.689,,23240,-18200,-23660
16:18:49.699,,13020,-20020,-35000
16:18:49.709,,6370,-19880,-43260
16:18:49.719,,2170,-21140,-49280
16:18:49.729,,-910,-22260,-53410
16:18:49.739,,3150,-24710,-63560
16:18:49.749,,6720,-26250,-71400
16:18:49.759,,11480,-27230,-80290
16:18:49.769,,14070,-27300,-88900
16:18:49.779,,12390,-27090,-96530
16:18:49.789,,8610,-26740,-103460
16:18:49.799,,6440,-26600,-110740
16:18:49.809,,6860,-27370,-117390
16:18:49.819,,8330,-28000,-121660
16:18:49.829,,9100,-27930,-124250
16:18:49.839,,8470,-26740,-124320
16:18:49.849,,8960,-24150,-120610
16:18:49.859,,14140,-20930,-116480
16:18:49.869,,33740,-18760,-115290
16:18:49.879,,41160,-20580,-116900
16:18:49.889,,45010,-22330,-120890
16:18:49.899,,42350,-23450,-125020
16:18:49.909,,39480,-26810,-127540
16:18:49.919,,37590,-31150,-129990
16:18:49.929,,35490,-32760,-131670
16:18:49.939,,32620,-31290,-133840
16:18:49.949,,30870,-29610,-136010
16:18:49.959,,31290,-28980,-136360
16:18:49.969,,32340,-30030,-135660
16:18:49.979,,33040,-32690,-136570
16:18:49.989,,32900,-34720,-137970
16:18:49.999,,25270,-33180,-139650
16:18:50.009,,19670,-30940,-140420
16:18:50.019,,15680,-29330,-141050
16:18:50.029,,11900,-29050,-142100
16:18:50.039,,6370,-28840,-143780
16:18:50.049,,1750,-28350,-145320
16:18:50.059,,-1260,-27440,-145670
16:18:50.069,,-4130,-25620,-145390
16:18:50.079,,-6230,-22750,-144690
16:18:50.089,,-5530,-19810,-144410
16:18:50.099,,-2590,-18410,-144830
16:18:50.109,,1400,-19250,-144900
16:18:50.119,,5460,-20230,-144480
16:18:50.129,,15820,-18620,-143990
16:18:50.139,,22750,-19110,-144200
16:18:50.149,,30660,-20020,-145110
16:18:50.159,,40320,-20230,-144550
16:18:50.169,,49630,-20650,-142310
16:18:50.179,,54810,-21630,-140420
16:18:50.189,,53760,-22610,-140140
16:18:50.199,,46480,-22750,-141470
16:18:50.209,,34930,-21000,-144340
16:18:50.219,,22820,-17430,-148820
16:18:50.229,,13790,-12810,-155050
16:18:50.239,,10010,-7630,-162330
16:18:50.249,,11340,-2800,-173880
16:18:50.259,,15960,2030,-176470
16:18:50.269,,16030,1680,-177170
16:18:50.279,,13020,-1120,-177240
16:18:50.289,,5600,-3640,-177520
16:18:50.299,,-3290,-4620,-178220
16:18:50.309,,-11130,-6160,-179060
16:18:50.319,,-19530,-7630,-179900
16:18:50.329,,-28490,-6790,-180880
16:18:50.339,,-35770,-4620,-181580
16:18:50.349,,-39480,-3080,-180530
16:18:50.359,,-38850,-2660,-176540
16:18:50.369,,-33880,-2240,-169960
16:18:50.379,,-25130,1540,-151340
16:18:50.389,,-2940,4760,-140280
16:18:50.399,,9380,7910,-130060
16:18:50.409,,17640,11760,-121520
16:18:50.419,,23380,13930,-115920
16:18:50.429,,29890,13160,-112490
16:18:50.439,,38850,10360,-112210
16:18:50.449,,45080,7980,-114450
16:18:50.580,,21280,3220,-96110
16:18:50.582,,21280,3220,-96110
16:18:50.583,,21280,5250,-92120
16:18:50.585,,20790,5250,-92120
16:18:50.586,,20790,5250,-92120
16:18:50.587,,20790,5250,-92120
16:18:50.589,,20790,5250,-92120
16:18:50.590,,20790,5250,-92120
16:18:50.591,,20790,5250,-92120
16:18:50.593,,18900,6720,-90230
16:18:50.594,,18900,6720,-90230
16:18:50.595,,18900,6720,-90230
16:18:50.597,,18900,6720,-90230
16:18:50.598,,18900,6720,-90230
16:18:50.600,,18900,6720,-90230
16:18:50.609,,13860,7630,-87430
16:18:50.619,,6580,7140,-80850
16:18:50.629,,1960,7700,-73710
16:18:50.639,,7560,8960,-64680
16:18:50.649,,11410,6860,-59920
16:18:50.659,,11340,4690,-53690
16:18:50.669,,9730,2380,-46200
16:18:50.679,,7630,420,-36960
16:18:50.689,,6440,-700,-27650
16:18:50.699,,5530,-840,-19810
16:18:50.709,,4340,-1540,-12460
16:18:50.719,,2450,-3220,-4130
16:18:50.729,,-560,-5040,5810
16:18:50.739,,-5320,-6160,17080
16:18:50.749,,-9940,-6230,28770
16:18:50.759,,-11060,-5110,40810
16:18:50.769,,-70,-2450,67130
16:18:50.779,,4970,-2450,78610
16:18:50.789,,5110,-3220,88620
16:18:50.799,,1400,-4060,98630
16:18:50.809,,-3360,-5180,108430
16:18:50.819,,-6650,-6580,116760
16:18:50.829,,-8750,-7350,123410
16:18:50.839,,-10710,-7910,128940
16:18:50.849,,-13020,-7980,134750
16:18:50.859,,-14980,-7070,140420
16:18:50.869,,-16590,-6160,145950
16:18:50.879,,-18130,-5950,151760
16:18:50.889,,-19250,-5320,158760
16:18:50.899,,-18480,-4620,159390
16:18:50.909,,-20510,-6020,158480
16:18:50.919,,-26810,-7070,156800
16:18:50.929,,-35420,-8050,156100
16:18:50.939,,-43890,-9450,157220
16:18:50.949,,-49980,-10360,159530
16:18:50.959,,-52080,-10360,162470
16:18:50.969,,-49980,-11130,164920
16:18:50.979,,-46620,-12670,167020
16:18:50.989,,-45290,-12390,169400
16:18:50.999,,-47110,-10080,170800
16:18:51.009,,-49700,-7910,171500
16:18:51.019,,-52150,-5460,174090
16:18:51.029,,-51800,-4550,176260
16:18:51.039,,-47180,-3780,179270
16:18:51.049,,-40320,-3080,182420
16:18:51.059,,-31920,-3080,185850
16:18:51.069,,-25690,-3640,189210
16:18:51.079,,-23170,-4340,192150
16:18:51.089,,-22540,-3570,194040
16:18:51.099,,-22610,-1190,194460
16:18:51.109,,-22820,1470,193620
16:18:51.119,,-23170,3360,192010
16:18:51.129,,-24360,4970,190260
16:18:51.139,,-25830,7000,189070
16:18:51.149,,-26670,9240,187390
16:18:51.159,,-28910,9380,186970
16:18:51.169,,-33530,9450,187600
16:18:51.179,,-40460,11340,188720
16:18:51.189,,-44310,14770,190190
16:18:51.199,,-40250,17430,193620
16:18:51.209,,-31570,18690,196980
16:18:51.219,,-24430,18410,199150
16:18:51.229,,-20090,18270,201110
16:18:51.239,,-18970,18340,203070
16:18:51.249,,-21980,19600,205380
16:18:51.259,,-28770,23380,207340
16:18:51.269,,-35000,28350,209370
16:18:51.279,,-30870,32130,216580
16:18:51.289,,-26810,32270,219870
16:18:51.299,,-24990,31570,221620
16:18:51.309,,-27580,30660,221830
16:18:51.319,,-32200,30730,220570
16:18:51.329,,-34930,31150,217840
16:18:51.339,,-34860,31290,213710
16:18:51.349,,-33460,31360,207830
16:18:51.359,,-33460,30660,200130
16:18:51.369,,-35840,29050,191380
16:18:51.379,,-40040,26250,183610
16:18:51.389,,-44100,22750,178360
16:18:51.399,,-46340,20230,175560
16:18:51.409,,-48020,16170,168630
16:18:51.419,,-46690,12250,164010
16:18:51.429,,-43960,8120,159250
16:18:51.439,,-40950,4270,154560
16:18:51.449,,-38710,210,149590
16:18:51.459,,-38710,-3080,143780
16:18:51.469,,-42280,-5250,136710
16:18:51.479,,-47810,-5950,130200
16:18:51.489,,-50820,-7840,124180
16:18:51.499,,-50610,-11620,116550
16:18:51.509,,-46480,-13370,105700
16:18:51.519,,-40390,-9100,91700
16:18:51.529,,-34090,210,74760
16:18:51.539,,-28980,13230,44450
16:18:51.549,,-35210,16450,33250
16:18:51.559,,-46270,18900,23730
16:18:51.569,,-61040,21280,18410
16:18:51.579,,-73080,24500,19600
16:18:51.589,,-76440,26810,26320
16:18:51.599,,-70000,27020,34370
16:18:51.609,,-55160,25900,42420
16:18:51.619,,-33040,24920,52080
16:18:51.629,,-16590,25200,65170
16:18:51.639,,5110,22750,63350
16:18:51.649,,33530,19530,56700
16:18:51.659,,49000,18200,49630
16:18:51.669,,25060,18970,52920
16:18:51.679,,-1960,17500,53060
16:18:51.689,,-13930,12040,46410
16:18:51.814,,31990,-12950,-57960
16:18:51.816,,31990,-12950,-57960
16:18:51.817,,22960,-16170,-67760
16:18:51.818,,22960,-16170,-67760
16:18:51.820,,22960,-16170,-67760
16:18:51.821,,22960,-16170,-67760
16:18:51.822,,22960,-16170,-67760
16:18:51.824,,22960,-16170,-67760
16:18:51.825,,22960,-16170,-67760
16:18:51.827,,14770,-23590,-77630
16:18:51.828,,14770,-23590,-77630
16:18:51.829,,14770,-23590,-77630
16:18:51.831,,14770,-23590,-77630
16:18:51.832,,14770,-23590,-77630
16:18:51.839,,9450,-30450,-88760
16:18:51.849,,5460,-31780,-98350
16:18:51.859,,3920,-29540,-104860
16:18:51.869,,5460,-25620,-112280
16:18:51.879,,14000,-22890,-117110
16:18:51.889,,25200,-20580,-120540
16:18:51.899,,33810,-18550,-124600
16:18:51.909,,39060,-19320,-129850
16:18:51.919,,40950,-22330,-140770
16:18:51.929,,37450,-21980,-143780
16:18:51.939,,36050,-21280,-144830
16:18:51.949,,40600,-20860,-143990
16:18:51.959,,51310,-20440,-142520
16:18:51.969,,65170,-19880,-140840
16:18:51.979,,79030,-18200,-139300
16:18:51.989,,91980,-16450,-138320
16:18:51.999,,98910,-15820,-139230
16:18:52.009,,95480,-15750,-143080
16:18:52.019,,86520,-16310,-148330
16:18:52.029,,73710,-17010,-153720
16:18:52.039,,60830,-17710,-154280
16:18:52.049,,47180,-22120,-154490
16:18:52.059,,45150,-23310,-155680
16:18:52.069,,45010,-22820,-157080
16:18:52.079,,46060,-21070,-157430
16:18:52.089,,45430,-19180,-159320
16:18:52.099,,41510,-17360,-163240
16:18:52.109,,34510,-16590,-166600
16:18:52.119,,25060,-15610,-168490
16:18:52.129,,16940,-13650,-168700
16:18:52.139,,12460,-11480,-169820
16:18:52.149,,12600,-9590,-170520
16:18:52.159,,15680,-7350,-169610
16:18:52.169,,22680,-5460,-167300
16:18:52.179,,42000,-3570,-161350
16:18:52.189,,46690,-2100,-156800
16:18:52.199,,46550,-1190,-151620
16:18:52.209,,42700,-2380,-147140
16:18:52.219,,36610,-2940,-144410
16:18:52.229,,31290,-1120,-143080
16:18:52.239,,29540,700,-142590
16:18:52.249,,31360,770,-141610
16:18:52.259,,36610,-770,-139720
16:18:52.269,,44100,-3570,-137760
16:18:52.279,,49700,-7210,-136570
16:18:52.289,,50260,-9520,-136360
16:18:52.299,,46830,-9730,-139160
16:18:52.309,,43960,-7840,-140420
16:18:52.319,,42560,-8960,-142240
16:18:52.329,,36960,-11760,-143780
16:18:52.339,,26530,-13720,-144200
16:18:52.349,,14070,-14490,-144760
16:18:52.359,,3640,-13650,-145740
16:18:52.369,,-1120,-11690,-146440
16:18:52.379,,140,-9590,-145880
16:18:52.389,,5110,-7210,-144620
16:18:52.399,,14210,-5040,-143010
16:18:52.409,,24220,-5040,-141400
16:18:52.419,,29540,-7630,-140210
16:18:52.429,,27790,-11690,-139930
16:18:52.439,,5530,-10850,-140420
16:18:52.449,,-10710,-6860,-142170
16:18:52.459,,-21210,-280,-145320
16:18:52.469,,-21350,5880,-147350
16:18:52.479,,-14840,8820,-147840
16:18:52.489,,-4200,7910,-147420
16:18:52.499,,5460,4900,-145390
16:18:52.509,,5250,2870,-141680
16:18:52.519,,-5530,3080,-136780
16:18:52.529,,-18900,6860,-131810
16:18:52.539,,-24640,15820,-129150
16:18:52.549,,-14070,25060,-128730
16:18:52.559,,9800,22470,-133350
16:18:52.569,,51310,16170,-132650
16:18:52.579,,55440,10850,-128520
16:18:52.589,,45850,7560,-123760
16:18:52.599,,30170,8400,-118930
16:18:52.609,,15820,14700,-115500
16:18:52.619,,10920,23030,-114590
16:18:52.629,,20790,26880,-114310
16:18:52.639,,40320,23800,-112630
16:18:52.649,,58800,18480,-112070
16:18:52.659,,65030,14980,-111370
16:18:52.669,,61180,14280,-110110
16:18:52.679,,51730,15120,-110810
16:18:52.689,,32480,22190,-111790
16:18:52.699,,27090,22050,-109900
16:18:52.709,,23240,20160,-109060
16:18:52.719,,19670,19670,-105420
16:18:52.729,,13370,20300,-103460
16:18:52.739,,3710,23450,-101920
16:18:52.749,,-3010,25690,-97580
16:18:52.759,,-6230,26600,-90720
16:18:52.769,,-7770,27160,-81340
16:18:52.779,,-7560,27230,-70280
16:18:52.789,,-5320,25060,-57890
16:18:52.799,,-1050,19530,-44100
16:18:52.809,,2030,13300,-29890
16:18:52.819,,1470,3290,-3990
16:18:52.829,,-490,-3080,7700
16:18:52.839,,-5320,-8820,19530
16:18:52.849,,-11690,-12530,32410
16:18:52.859,,-17080,-15400,45920
16:18:52.869,,-18340,-17360,58450
16:18:52.879,,-16520,-19180,69650
16:18:52.889,,-14280,-20020,79660
16:18:53.009,,-34440,-28840,168840
16:18:53.011,,-34440,-28840,168840
16:18:53.012,,-34440,-28840,168840
16:18:53.013,,-42840,-27930,170380
16:18:53.015,,-42840,-27930,170380
16:18:53.016,,-42840,-27930,170380
16:18:53.017,,-42840,-27930,170380
16:18:53.019,,-42840,-27930,170380
16:18:53.020,,-42840,-27930,170380
16:18:53.022,,-42840,-27930,170380
16:18:53.023,,-47670,-26880,172690
16:18:53.024,,-47670,-26880,172690
16:18:53.026,,-47670,-26880,172690
16:18:53.029,,-47670,-26880,172690
16:18:53.039,,-48230,-25550,176050
16:18:53.049,,-45640,-24570,178850
16:18:53.059,,-43050,-23730,181020
16:18:53.069,,-41580,-23240,184520
16:18:53.079,,-41720,-24710,186200
16:18:53.089,,-42630,-25690,188440
16:18:53.099,,-43190,-27720,191170
16:18:53.109,,-42910,-29890,192990
16:18:53.119,,-41370,-30660,194460
16:18:53.129,,-38780,-30030,196280
16:18:53.139,,-35210,-28560,199010
16:18:53.149,,-31710,-26530,201810
16:18:53.159,,-27790,-24850,204470
16:18:53.169,,-23170,-23170,207340
16:18:53.179,,-19250,-20860,210770
16:18:53.189,,-17710,-17570,214900
16:18:53.199,,-17150,-10150,221270
16:18:53.209,,-6930,-9100,223440
16:18:53.219,,-1680,-9450,224140
16:18:53.229,,70,-10430,223790
16:18:53.239,,-910,-11060,222040
16:18:53.249,,-5250,-11690,218260
16:18:53.259,,-12950,-12810,212310
16:18:53.269,,-21280,-13580,205590
16:18:53.279,,-27930,-12320,199640
16:18:53.289,,-31500,-8960,195020
16:18:53.299,,-30730,-6230,192360
16:18:53.309,,-28210,-5040,191520
16:18:53.319,,-26250,-4200,190330
16:18:53.329,,-14630,910,187110
16:18:53.339,,-11340,3430,186200
16:18:53.349,,-14280,4970,185430
16:18:53.359,,-20650,6160,183960
16:18:53.369,,-26880,8960,180600
16:18:53.379,,-30240,11760,174020
16:18:53.389,,-30730,13510,165200
16:18:53.399,,-30450,15120,157220
16:18:53.409,,-31780,15470,148610
16:18:53.419,,-34720,15050,140280
16:18:53.429,,-37800,15680,132860
16:18:53.439,,-36610,17710,126630
16:18:53.449,,-31640,19880,121100
16:18:53.459,,-24430,22190,112140
16:18:53.469,,-23030,21210,107450
16:18:53.479,,-24290,17150,102900
16:18:53.489,,-28070,13790,99890
16:18:53.499,,-32270,13300,97790
16:18:53.509,,-38080,14000,95130
16:18:53.519,,-41860,14560,92610
16:18:53.529,,-40390,12810,91560
16:18:53.539,,-38570,8190,92820
16:18:53.549,,-38850,3640,96740
16:18:53.559,,-39550,1050,101290
16:18:53.569,,-39410,210,105280
16:18:53.579,,-37940,-630,108150
16:18:53.589,,-34370,-3780,109760
16:18:53.599,,-34860,-6860,109970
16:18:53.609,,-37800,-9730,110390
16:18:53.619,,-40740,-9450,111090
16:18:53.629,,-40110,-6720,111860
16:18:53.639,,-36750,-4410,111650
16:18:53.649,,-32060,-4270,110530
16:18:53.659,,-29820,-5320,108640
16:18:53.669,,-32060,-6510,106750
16:18:53.679,,-36610,-7630,105630
16:18:53.689,,-40740,-8120,104790
16:18:53.699,,-42700,-8050,104510
16:18:53.709,,-41860,-8120,107590
16:18:53.719,,-31080,-6930,111580
16:18:53.729,,-17290,-5950,113890
16:18:53.739,,-2450,-6230,115220
16:18:53.749,,6580,-5530,117740
16:18:53.759,,22260,-6930,104440
16:18:53.769,,29540,-4410,106470
16:18:53.779,,18970,3430,113680
16:18:53.789,,4550,9030,108570
16:18:53.799,,-1260,5670,97090
16:18:53.809,,-7700,-560,87570
16:18:53.819,,-22120,3500,74900
16:18:53.829,,-31500,16450,59360
16:18:53.839,,-22120,26110,14000
16:18:53.849,,39130,24710,-16380
16:18:53.859,,59500,23450,-43470
16:18:53.869,,65660,22890,-65870
16:18:53.879,,59290,20230,-84210
16:18:53.889,,46410,13510,-100800
16:18:53.899,,32060,4200,-116410
16:18:53.909,,16800,-5250,-129780
16:18:53.919,,2520,-12110,-138880
16:18:53.929,,-7280,-15540,-144340
16:18:53.939,,-8960,-17360,-149030
16:18:53.949,,-4270,-17850,-154980
16:18:53.959,,1260,-17570,-160230
16:18:53.969,,5600,-14280,-160160
16:18:53.979,,20720,-10780,-159460
16:18:53.989,,28700,-7700,-159390
16:18:53.999,,34650,-5110,-159600
16:18:54.009,,37870,-3710,-160370
16:18:54.019,,36330,-3920,-160300
16:18:54.029,,30940,-4690,-158340
16:18:54.039,,24920,-4900,-156100
16:18:54.049,,22260,-4620,-152880
16:18:54.059,,26320,-4830,-147700
16:18:54.069,,37100,-4060,-143500
16:18:54.079,,52080,-3080,-142450
16:18:54.089,,66710,-2380,-144480
16:18:54.099,,84070,-1890,-153440
16:18:54.224,,32200,3500,-172970
16:18:54.225,,32200,3500,-172970
16:18:54.227,,32200,3500,-172970
16:18:54.228,,32200,3500,-171640
16:18:54.230,,33950,2800,-171640
16:18:54.231,,33950,2800,-171640
16:18:54.232,,33950,2800,-171640
16:18:54.234,,33950,2800,-171640
16:18:54.235,,33950,2800,-171640
16:18:54.236,,33950,2800,-171640
16:18:54.238,,37520,1610,-169890
16:18:54.239,,37520,1610,-169890
16:18:54.241,,37520,1610,-169890
16:18:54.242,,37520,1610,-169890
16:18:54.249,,40670,140,-167580
16:18:54.259,,42280,-770,-165270
16:18:54.269,,44240,-1050,-163800
16:18:54.279,,48440,-630,-163030
16:18:54.289,,54390,-1120,-162540
16:18:54.299,,59290,-3080,-162190
16:18:54.309,,60900,-5110,-161700
16:18:54.319,,60690,-6860,-161070
16:18:54.329,,61950,-8050,-160300
16:18:54.339,,63980,-9450,-159110
16:18:54.349,,64610,-11620,-156590
16:18:54.359,,59570,-12950,-148750
16:18:54.369,,56910,-11060,-146580
16:18:54.379,,55720,-9730,-146370
16:18:54.389,,54950,-9450,-147280
16:18:54.399,,52920,-9800,-147630
16:18:54.409,,47810,-9520,-146860
16:18:54.419,,40180,-8750,-145040
16:18:54.429,,32620,-8820,-141750
16:18:54.439,,24010,-9800,-137130
16:18:54.449,,13650,-11060,-132510
16:18:54.459,,8260,-12040,-131180
16:18:54.469,,14700,-13370,-131390
16:18:54.479,,28840,-16870,-130340
16:18:54.489,,47320,-27580,-128380
16:18:54.499,,41370,-31640,-125090
16:18:54.509,,24990,-30940,-120820
16:18:54.519,,5950,-25970,-118790
16:18:54.529,,-5250,-19600,-120680
16:18:54.539,,-5880,-11970,-125370
16:18:54.549,,4200,-4760,-130900
16:18:54.559,,17850,-980,-133070
16:18:54.569,,26530,-2380,-132230
16:18:54.579,,26600,-6230,-129990
16:18:54.589,,20300,-8820,-127540
16:18:54.599,,11060,-9170,-124460
16:18:54.609,,630,-3640,-120680
16:18:54.619,,-1540,1820,-126700
16:18:54.629,,19600,4130,-131810
16:18:54.639,,43680,1470,-133350
16:18:54.649,,56770,-1960,-133840
16:18:54.659,,57820,-4200,-133140
16:18:54.669,,50680,-4760,-131040
16:18:54.679,,39480,-3150,-127540
16:18:54.689,,31010,2240,-124670
16:18:54.699,,26810,9170,-122500
16:18:54.709,,28140,13790,-119560
16:18:54.719,,34790,14210,-119000
16:18:54.729,,39550,12110,-118720
16:18:54.739,,34790,10150,-111230
16:18:54.749,,33530,7910,-108920
16:18:54.759,,25690,9030,-106680
16:18:54.769,,19110,8610,-102830
16:18:54.779,,8820,8610,-95200
16:18:54.789,,-1960,10430,-86380
16:18:54.799,,-8750,13580,-76930
16:18:54.809,,-9310,15540,-67060
16:18:54.819,,-5040,14280,-56210
16:18:54.829,,210,10220,-44170
16:18:54.839,,4970,4900,-32200
16:18:54.849,,7700,-1190,-21770
16:18:54.859,,6930,-6930,-12600
16:18:54.869,,-4200,-12250,6160
16:18:54.879,,-10850,-11620,16940
16:18:54.889,,-18130,-10640,28280
16:18:54.899,,-23800,-10430,39830
16:18:54.909,,-23310,-10080,51730
16:18:54.919,,-16590,-10570,64050
16:18:54.929,,-9380,-12670,76020
16:18:54.939,,-7140,-15540,85960
16:18:54.949,,-10290,-17990,94920
16:18:54.959,,-17010,-20160,103180
16:18:54.969,,-24220,-21910,110390
16:18:54.979,,-28840,-22750,116690
16:18:54.989,,-29190,-23030,122710
16:18:54.999,,-22610,-20790,132160
16:18:55.009,,-20440,-19250,135170
16:18:55.019,,-23590,-17710,138250
16:18:55.029,,-30030,-16380,142170
16:18:55.039,,-36120,-15260,145880
16:18:55.049,,-40880,-14000,148260
16:18:55.059,,-43120,-12460,150010
16:18:55.069,,-41650,-10990,152460
16:18:55.079,,-37590,-10360,155190
16:18:55.089,,-31850,-10290,158060
16:18:55.099,,-25900,-10220,160790
16:18:55.109,,-22260,-10430,163520
16:18:55.119,,-22820,-11200,166040
16:18:55.129,,-33460,-11480,166390
16:18:55.139,,-39410,-9100,167160
16:18:55.149,,-43330,-5670,168140
16:18:55.159,,-43610,-2100,168350
16:18:55.169,,-40180,840,168840
16:18:55.179,,-35140,2870,169960
16:18:55.189,,-29890,4900,171220
16:18:55.199,,-25340,6090,172620
16:18:55.209,,-22050,5880,174510
16:18:55.219,,-20930,6440,176960
16:18:55.229,,-22680,8120,177870
16:18:55.239,,-23730,9100,176470
16:18:55.249,,-21420,8960,173040
16:18:55.259,,-14490,7140,170940
16:18:55.269,,-12530,5250,168000
16:18:55.279,,-11410,3290,164920
16:18:55.289,,-10570,2310,163030
16:18:55.299,,-10150,2450,162260
16:18:55.309,,-11620,3430,161910
16:18:55.319,,-15400,5180,162330
16:18:55.439,,-13650,14350,205030
16:18:55.440,,-13650,14350,205030
16:18:55.441,,-13650,14350,205030
16:18:55.443,,-13650,14350,205030
16:18:55.444,,-17290,19390,202860
16:18:55.445,,-17290,19390,202860
16:18:55.447,,-17290,19390,202860
16:18:55.448,,-17290,19390,202860
16:18:55.450,,-17290,19390,202860
16:18:55.451,,-17290,19390,202860
16:18:55.452,,-17290,19390,202860
16:18:55.454,,-18690,23800,198870
16:18:55.455,,-18690,23800,198870
16:18:55.459,,-18690,23800,198870
16:18:55.469,,-20160,26600,193200
16:18:55.479,,-20160,27720,187950
16:18:55.489,,-19460,28770,186200
16:18:55.499,,-19530,30310,186620
16:18:55.509,,-12950,30800,186900
16:18:55.519,,-8540,30100,186620
16:18:55.529,,-7280,31430,185150
16:18:55.539,,-9730,33810,183960
16:18:55.549,,-12460,35140,184240
16:18:55.559,,-14770,37030,182980
16:18:55.569,,-15610,39690,179900
16:18:55.579,,-11410,42210,177170
16:18:55.589,,-2380,43190,175490
16:18:55.599,,4830,43120,174790
16:18:55.609,,6160,43960,174860
16:18:55.619,,2800,45360,174650
16:18:55.629,,-1610,46970,172900
16:18:55.639,,-5670,51240,163590
16:18:55.649,,-4970,53690,157150
16:18:55.659,,-2170,56770,149800
16:18:55.669,,6090,59220,142800
16:18:55.679,,19810,59500,138670
16:18:55.689,,36400,59640,139860
16:18:55.699,,51310,60480,144970
16:18:55.709,,61390,62650,149730
16:18:55.719,,68320,66290,151340
16:18:55.729,,73990,70210,149520
16:18:55.739,,79380,73360,144900
16:18:55.749,,85330,74410,139440
16:18:55.759,,88830,72870,133630
16:18:55.769,,80990,66430,131250
16:18:55.779,,93800,60060,121030
16:18:55.789,,84070,58800,116130
16:18:55.799,,60200,60060,102900
16:18:55.809,,21980,63910,94010
16:18:55.819,,-4550,55020,90650
16:18:55.829,,-13860,41370,84210
16:18:55.839,,-21910,35070,75180
16:18:55.849,,-32830,32130,65450
16:18:55.859,,-37450,26670,58590
16:18:55.869,,-34510,19110,56980
16:18:55.879,,-28210,12740,57610
16:18:55.889,,-20720,9660,47950
16:18:55.899,,-12040,6160,39480
16:18:55.909,,-13650,4970,31710
16:18:55.919,,-16590,5810,27370
16:18:55.929,,-15820,3850,23030
16:18:55.939,,-14700,1820,15680
16:18:55.949,,-13300,1050,9170
16:18:55.959,,-9940,-140,910
16:18:55.969,,-6020,-2170,-8890
16:18:55.979,,-3360,-6160,-18480
16:18:55.989,,420,-12110,-28350
16:18:55.999,,6160,-20020,-41790
16:18:56.008,,10150,-29540,-56980
16:18:56.018,,8120,-47670,-86100
16:18:56.028,,-5250,-54740,-100170
16:18:56.038,,-10010,-58940,-112490
16:18:56.048,,-13510,-60620,-122500
16:18:56.058,,-16030,-60480,-130900
16:18:56.068,,-15190,-58870,-137620
16:18:56.078,,-7000,-56770,-141960
16:18:56.088,,4340,-53830,-144270
16:18:56.098,,17640,-53270,-144900
16:18:56.108,,30240,-55090,-145740
16:18:56.118,,37100,-57890,-148750
16:18:56.128,,37870,-60970,-151270
16:18:56.138,,35910,-62370,-152040
16:18:56.148,,38010,-65450,-156660
16:18:56.158,,38780,-69580,-162400
16:18:56.168,,35210,-74130,-169190
16:18:56.178,,27300,-78260,-176890
16:18:56.188,,17010,-79730,-182770
16:18:56.198,,10150,-77700,-185570
16:18:56.208,,9380,-75320,-189770
16:18:56.218,,9100,-74690,-196350
16:18:56.228,,4970,-74060,-203630
16:18:56.238,,-560,-72870,-210490
16:18:56.248,,-5740,-71120,-216650
16:18:56.258,,-10290,-68390,-222180
16:18:56.268,,-13860,-64260,-227850
16:18:56.278,,-18970,-53970,-235480
16:18:56.288,,-19110,-49980,-236460
16:18:56.298,,-19180,-47390,-236320
16:18:56.308,,-19950,-45780,-234150
16:18:56.318,,-21000,-42420,-231280
16:18:56.328,,-21630,-37450,-227990
16:18:56.338,,-17640,-32130,-221830
16:18:56.348,,-6580,-28700,-217630
16:18:56.358,,5530,-28070,-216300
16:18:56.368,,12460,-29890,-217140
16:18:56.378,,13720,-33530,-218820
16:18:56.388,,11620,-37310,-220710
16:18:56.398,,8820,-39550,-222740
16:18:56.408,,17080,-39340,-218820
16:18:56.418,,27020,-38010,-213150
16:18:56.428,,38990,-35700,-205800
16:18:56.438,,51520,-33740,-197190
16:18:56.448,,60480,-32060,-188370
16:18:56.458,,64540,-30170,-179970
16:18:56.468,,65520,-28490,-172620
16:18:56.478,,67130,-26110,-166950
16:18:56.488,,69790,-24150,-162190
16:18:56.498,,70980,-24010,-158130
16:18:56.508,,68670,-24640,-156170
16:18:56.518,,62790,-24640,-155960
16:18:56.644,,-490,-18760,-131460
16:18:56.645,,-490,-18760,-131460
16:18:56.646,,-490,-18760,-131460
16:18:56.648,,-490,-18760,-131460
16:18:56.649,,-490,-18760,-133840
16:18:56.650,,-4620,-14630,-133840
16:18:56.652,,-4620,-14630,-133840
16:18:56.653,,-4620,-14630,-133840
16:18:56.655,,-4620,-14630,-133840
16:18:56.656,,-4620,-14630,-133840
16:18:56.657,,-4620,-14630,-133840
16:18:56.659,,2520,-10850,-136220
16:18:56.660,,2520,-10850,-136220
16:18:56.661,,2520,-10850,-136220
16:18:56.668,,17640,-8330,-136500
16:18:56.678,,30940,-9520,-135520
16:18:56.688,,36260,-13440,-134750
16:18:56.698,,33530,-15820,-134050
16:18:56.708,,26670,-16030,-134470
16:18:56.718,,22680,-16030,-136360
16:18:56.728,,22400,-16100,-137060
16:18:56.738,,22820,-14630,-136290
16:18:56.748,,24430,-12670,-132860
16:18:56.758,,28840,-12320,-128170
16:18:56.768,,32550,-13650,-126140
16:18:56.778,,36190,-15190,-126910
16:18:56.788,,36750,-14350,-128940
16:18:56.798,,26460,-10920,-130200
16:18:56.808,,19950,-5950,-130480
16:18:56.818,,17080,-1400,-126980
16:18:56.828,,24010,490,-123550
16:18:56.838,,34230,280,-120960
16:18:56.848,,43750,-1400,-117320
16:18:56.858,,49350,-3290,-112910
16:18:56.868,,48580,-3430,-110530
16:18:56.878,,39550,-70,-108990
16:18:56.888,,29190,4970,-105490
16:18:56.898,,21490,9730,-100520
16:18:56.908,,16030,12460,-95900
16:18:56.918,,4340,14980,-86450
16:18:56.928,,-3780,15400,-80710
16:18:56.938,,-11900,14070,-73500
16:18:56.948,,-19040,10010,-63490
16:18:56.958,,-23800,4340,-51100
16:18:56.968,,-24150,-1400,-37800
16:18:56.978,,-20720,-6650,-23310
16:18:56.988,,-15400,-10710,-8050
16:18:56.998,,-10570,-13160,8120
16:18:57.008,,-8960,-14630,24570
16:18:57.018,,-9100,-14770,40180
16:18:57.028,,-7420,-15260,54880
16:18:57.038,,-5670,-16660,68320
16:18:57.048,,-9520,-17150,89110
16:18:57.058,,-10640,-17080,97720
16:18:57.068,,-11550,-18550,105350
16:18:57.078,,-13160,-20510,112630
16:18:57.088,,-16100,-21770,119840
16:18:57.098,,-19880,-21770,126490
16:18:57.108,,-22260,-21490,131740
16:18:57.118,,-22680,-21630,136290
16:18:57.128,,-22470,-21980,140910
16:18:57.138,,-22610,-22680,145320
16:18:57.148,,-23800,-23520,149520
16:18:57.158,,-25830,-23170,153860
16:18:57.168,,-29330,-20930,158060
16:18:57.178,,-33670,-16100,164360
16:18:57.188,,-33040,-14980,166880
16:18:57.198,,-33670,-14350,168350
16:18:57.208,,-35070,-13160,169050
16:18:57.218,,-34720,-11620,169190
16:18:57.228,,-32620,-10360,168910
16:18:57.238,,-30030,-10010,168700
16:18:57.248,,-28210,-10850,168910
16:18:57.258,,-28700,-11130,170100
16:18:57.268,,-31360,-10010,172410
16:18:57.278,,-33880,-8470,173950
16:18:57.288,,-34580,-7280,174020
16:18:57.298,,-34230,-6440,173740
16:18:57.308,,-32690,-5810,173390
16:18:57.318,,-29890,-6860,174860
16:18:57.328,,-25690,-7910,177240
16:18:57.338,,-20370,-8680,180320
16:18:57.348,,-15960,-8120,183470
16:18:57.358,,-13090,-5950,186060
16:18:57.368,,-9730,-2940,188230
16:18:57.378,,-5460,0,189140
16:18:57.388,,-1680,1750,188440
16:18:57.398,,630,2730,186830
16:18:57.408,,-210,4130,184590
16:18:57.418,,-4060,6090,182210
16:18:57.428,,-9030,8540,176610
16:18:57.438,,-16660,9030,173390
16:18:57.448,,-19110,9660,171010
16:18:57.458,,-21000,10150,170240
16:18:57.468,,-21490,10430,171150
16:18:57.478,,-19390,11060,173110
16:18:57.488,,-15540,12250,175700
16:18:57.498,,-11970,14070,178010
16:18:57.508,,-9940,16100,180320
16:18:57.518,,-8820,17080,183470
16:18:57.528,,-8890,17640,186970
16:18:57.538,,-8820,19180,190190
16:18:57.548,,-6510,20720,192640
16:18:57.558,,-3220,24500,195650
16:18:57.568,,1960,26600,195790
16:18:57.578,,420,27090,196490
16:18:57.588,,-5810,29050,196840
16:18:57.598,,-12880,33810,195650
16:18:57.608,,-18900,39760,193060
16:18:57.618,,-21210,44170,190680
16:18:57.628,,-20160,46410,188930
16:18:57.638,,-16310,47530,187250
16:18:57.648,,-10150,47530,185220
16:18:57.658,,-2520,45640,182420
16:18:57.668,,4480,42840,178150
16:18:57.678,,10430,41300,173740
16:18:57.688,,21350,38850,165060
16:18:57.698,,24080,37380,159740
16:18:57.708,,25550,38500,154490
16:18:57.718,,25270,41230,150080
16:18:57.728,,22820,42420,145600
16:18:57.738,,18620,42910,140560
16:18:57.867,,-3430,32200,88480
16:18:57.869,,-3430,32200,88480
16:18:57.870,,-3430,32200,88480
16:18:57.871,,-3430,32200,88480
16:18:57.873,,-3430,32200,88480
16:18:57.874,,-6370,26110,84070
16:18:57.876,,-6370,26110,84070
16:18:57.877,,-6370,26110,84070
16:18:57.878,,-6370,26110,84070
16:18:57.880,,-6370,26110,84070
16:18:57.881,,-6370,26110,84070
16:18:57.882,,-6370,26110,84070
16:18:57.884,,-16170,22400,85050
16:18:57.885,,-16170,22400,85050
16:18:57.888,,-16170,22400,85050
16:18:57.898,,-22820,20790,77630
16:18:57.908,,-8260,19950,63980
16:18:57.918,,-3010,22820,59990
16:18:57.928,,-8820,26040,59220
16:18:57.938,,-14840,28350,59710
16:18:57.948,,-6860,27020,58800
16:18:57.958,,2940,24920,55440
16:18:57.968,,16030,19950,45010
16:18:57.978,,26110,16870,35210
16:18:57.988,,32690,13160,27720
16:18:57.998,,35280,8750,15680
16:18:58.008,,26250,6090,7000
16:18:58.018,,17920,-1540,-1750
16:18:58.028,,14420,-9660,-13090
16:18:58.038,,11130,-13860,-25340
16:18:58.048,,8540,-17780,-37730
16:18:58.058,,7700,-22890,-50610
16:18:58.068,,10430,-29540,-80150
16:18:58.078,,11760,-38850,-91350
16:18:58.088,,10990,-40460,-101780
16:18:58.098,,14700,-42490,-112280
16:18:58.108,,20160,-43260,-122640
16:18:58.118,,24290,-43400,-132720
16:18:58.128,,25340,-44520,-140280
16:18:58.138,,24430,-45920,-146300
16:18:58.148,,24640,-46550,-152880
16:18:58.158,,27160,-46200,-160300
16:18:58.168,,31080,-46550,-168140
16:18:58.178,,33740,-48370,-176120
16:18:58.188,,33740,-50750,-183960
16:18:58.198,,31150,-54040,-196210
16:18:58.208,,21420,-54880,-200620
16:18:58.218,,16310,-54530,-203350
16:18:58.228,,13790,-52220,-204610
16:18:58.238,,14980,-49910,-206220
16:18:58.248,,16380,-49910,-209160
16:18:58.258,,16590,-50890,-211330
16:18:58.268,,15820,-51590,-212590
16:18:58.278,,13440,-50820,-213430
16:18:58.288,,13160,-47740,-211540
16:18:58.298,,14980,-42140,-209230
16:18:58.308,,17290,-35630,-202230
16:18:58.318,,23450,-30940,-198100
16:18:58.328,,42700,-25410,-187740
16:18:58.338,,43260,-23100,-186690
16:18:58.348,,36820,-22260,-187040
16:18:58.358,,28420,-22750,-187740
16:18:58.368,,20300,-21000,-188860
16:18:58.378,,18970,-16660,-188580
16:18:58.388,,28140,-13510,-184240
16:18:58.398,,42700,-12530,-177030
16:18:58.408,,58450,-11900,-169260
16:18:58.418,,75180,-11200,-162750
16:18:58.428,,89460,-13440,-159320
16:18:58.438,,95970,-18550,-160160
16:18:58.448,,93730,-23450,-164010
16:18:58.458,,75600,-31220,-167930
16:18:58.468,,69720,-33180,-167020
16:18:58.478,,71820,-34230,-164080
16:18:58.488,,77980,-33810,-160020
16:18:58.498,,82530,-31850,-157010
16:18:58.508,,81970,-28140,-156870
16:18:58.518,,74340,-23100,-159320
16:18:58.528,,58590,-15960,-163660
16:18:58.538,,40250,-7980,-168700
16:18:58.548,,28140,-2100,-172270
16:18:58.558,,25830,-490,-173320
16:18:58.568,,33180,-3710,-171430
16:18:58.578,,44590,-11550,-166460
16:18:58.588,,48720,-26740,-153230
16:18:58.598,,39480,-29050,-148750
16:18:58.608,,27160,-29400,-146720
16:18:58.618,,17150,-28140,-147140
16:18:58.628,,12320,-27580,-149520
16:18:58.638,,7560,-29050,-151830
16:18:58.648,,-1540,-30310,-152740
16:18:58.658,,-10780,-29890,-151690
16:18:58.668,,-15960,-26950,-149030
16:18:58.678,,-18130,-22260,-144830
16:18:58.688,,-18480,-16800,-142030
16:18:58.698,,-12810,-12810,-143710
16:18:58.708,,1260,-11970,-156590
16:18:58.718,,17570,-20580,-158900
16:18:58.728,,10500,-21140,-158480
16:18:58.738,,-2520,-17290,-159040
16:18:58.748,,-15260,-12460,-158410
16:18:58.758,,-24150,-8680,-153790
16:18:58.768,,-31080,-5250,-148960
16:18:58.778,,-28700,-3080,-148960
16:18:58.788,,-11830,-4270,-152880
16:18:58.798,,9450,-9520,-155260
16:18:58.808,,22120,-15330,-153580
16:18:58.818,,20790,-17220,-149100
16:18:58.828,,9030,-14560,-143570
16:18:58.838,,-10010,-2380,-134960
16:18:58.848,,-24780,2870,-134470
16:18:58.858,,-15190,5880,-131040
16:18:58.868,,-4620,8260,-124040
16:18:58.878,,6230,7700,-117320
16:18:58.888,,8750,6650,-109830
16:18:58.898,,6440,5460,-102900
16:18:58.908,,3710,3360,-94920
16:18:58.918,,-2100,2660,-86030
16:18:58.928,,-7700,4970,-76090
16:18:58.938,,-10220,7700,-66780
16:18:59.064,,-3220,-19390,105910
16:18:59.066,,-3220,-19390,105910
16:18:59.067,,-3220,-19390,105910
16:18:59.068,,-3220,-19390,105910
16:18:59.070,,-3220,-19390,105910
16:18:59.071,,1120,-21560,117040
16:18:59.072,,1120,-21560,117040
16:18:59.074,,1120,-21560,117040
16:18:59.075,,1120,-21560,117040
16:18:59.077,,1120,-21560,117040
16:18:59.078,,1120,-21560,117040
16:18:59.079,,1120,-21560,127260
16:18:59.081,,2730,-21980,127260
16:18:59.082,,2730,-21980,127260
16:18:59.088,,2730,-21980,127260
16:18:59.098,,2100,-19040,141680
16:18:59.108,,770,-18900,146650
16:18:59.118,,-3010,-18200,150640
16:18:59.128,,-7420,-16170,153650
16:18:59.138,,-10220,-14420,156170
16:18:59.148,,-11620,-13440,158200
16:18:59.158,,-12320,-12110,159180
16:18:59.168,,-12040,-10430,159600
16:18:59.178,,-12600,-10010,160720
16:18:59.188,,-16100,-10430,162400
16:18:59.198,,-21140,-10430,164710
16:18:59.208,,-25060,-10220,167090
16:18:59.218,,-26670,-10780,168910
16:18:59.228,,-24850,-9450,172900
16:18:59.238,,-21770,-6860,175350
16:18:59.248,,-20020,-4270,177100
16:18:59.258,,-20580,-1820,178290
16:18:59.268,,-21280,-70,178780
16:18:59.278,,-21770,840,179060
16:18:59.288,,-23380,350,178850
16:18:59.298,,-26460,-1890,177590
16:18:59.308,,-29540,-3780,177590
16:18:59.318,,-31290,-3290,180180
16:18:59.328,,-30800,-1960,185080
16:18:59.338,,-28630,-770,190680
16:18:59.348,,-24850,70,195230
16:18:59.358,,-18130,350,203210
16:18:59.368,,-16870,-420,205450
16:18:59.378,,-17360,-1190,206430
16:18:59.388,,-18970,-2100,205940
16:18:59.398,,-20510,-1960,203910
16:18:59.408,,-21210,-1470,201670
16:18:59.418,,-22050,-1750,199290
16:18:59.428,,-24150,-1750,197190
16:18:59.438,,-26110,-770,196210
16:18:59.448,,-26880,490,196420
16:18:59.458,,-25970,1820,198030
16:18:59.468,,-23800,3150,201180
16:18:59.478,,-20370,4480,207620
16:18:59.488,,-13300,7140,210700
16:18:59.498,,-9730,9030,213430
16:18:59.508,,-6930,9800,214970
16:18:59.518,,-7280,9590,214830
16:18:59.528,,-11060,8050,212940
16:18:59.538,,-16870,6370,210000
16:18:59.548,,-22960,6720,206640
16:18:59.558,,-27930,8260,203700
16:18:59.568,,-32270,10500,201250
16:18:59.578,,-34160,13160,199220
16:18:59.588,,-29330,15680,198100
16:18:59.598,,-20090,16100,197960
16:18:59.608,,-15470,15470,195020
16:18:59.618,,-26530,18830,190260
16:18:59.628,,-32270,23310,182630
16:18:59.638,,-35350,28350,171990
16:18:59.648,,-36050,31850,159810
16:18:59.658,,-35140,31150,146090
16:18:59.668,,-34650,28210,131390
16:18:59.678,,-37310,25200,117040
16:18:59.688,,-43750,22120,103600
16:18:59.698,,-51170,20160,92330
16:18:59.708,,-56140,21420,83650
16:18:59.718,,-57750,25760,77490
16:18:59.728,,-54810,29750,75460
16:18:59.738,,-46410,31990,72870
16:18:59.748,,-41300,33530,72030
16:18:59.758,,-31570,33810,72240
16:18:59.768,,-21280,31850,73710
16:18:59.778,,-12180,31080,76860
16:18:59.788,,-6090,30450,80850
16:18:59.798,,-7070,29470,84980
16:18:59.808,,-15400,29680,88760
16:18:59.818,,-25830,30800,91840
16:18:59.828,,-32550,30380,95270
16:18:59.838,,-34720,28700,98280
16:18:59.848,,-34580,27370,100450
16:18:59.858,,-34930,27090,100730
16:18:59.868,,-33320,31080,95060
16:18:59.878,,-25130,36540,91490
16:18:59.888,,-13580,41720,88550
16:18:59.898,,-5740,42630,85960
16:18:59.908,,-5880,40110,85470
16:18:59.918,,-9660,37240,85820
16:18:59.928,,-5180,34230,80990
16:18:59.938,,-7840,34720,84700
16:18:59.948,,-8330,33740,82950
16:18:59.958,,1890,27440,75250
16:18:59.968,,6930,25970,67480
16:18:59.978,,2520,31570,61810
16:18:59.988,,1610,35560,58170
16:18:59.998,,23800,27510,42070
16:19:00.008,,32270,21560,28840
16:19:00.018,,34860,14210,16590
16:19:00.028,,28840,5460,4760
16:19:00.038,,17360,-2520,-5740
16:19:00.048,,9520,-8120,-17710
16:19:00.058,,8610,-11830,-29750
16:19:00.068,,10010,-14000,-41370
16:19:00.078,,11200,-15400,-53620
16:19:00.088,,12880,-16870,-65450
16:19:00.098,,15470,-18480,-74830
16:19:00.108,,17990,-19740,-81760
16:19:00.118,,22120,-21280,-93030
16:19:00.128,,31780,-25480,-100030
16:19:00.138,,31710,-27090,-108990
16:19:00.148,,28980,-27370,-118370
16:19:00.158,,25410,-26740,-127470
16:19:00.168,,21630,-25690,-135450
16:19:00.289,,50540,-27440,-183680
16:19:00.291,,50540,-27440,-183680
16:19:00.292,,50540,-27440,-183680
16:19:00.293,,50540,-27440,-183680
16:19:00.295,,45290,-27160,-185570
16:19:00.296,,45290,-27160,-185570
16:19:00.297,,45290,-27160,-185570
16:19:00.299,,45290,-27160,-185570
16:19:00.300,,45290,-27160,-185570
16:19:00.302,,45290,-27160,-185570
16:19:00.303,,45290,-27160,-185570
16:19:00.304,,41090,-27860,-188370
16:19:00.306,,41090,-27860,-188370
16:19:00.308,,41090,-27860,-188370
16:19:00.318,,37310,-27860,-189490
16:19:00.328,,35070,-25970,-187320
16:19:00.338,,36260,-23800,-184870
16:19:00.348,,38710,-21420,-185990
16:19:00.358,,38220,-17850,-187250
16:19:00.368,,37730,-14700,-188720
16:19:00.378,,37100,-10080,-192360
16:19:00.388,,35490,-8610,-193690
16:19:00.398,,35840,-8610,-193970
16:19:00.408,,37100,-9940,-194530
16:19:00.418,,36750,-11690,-195510
16:19:00.428,,33600,-12110,-196140
16:19:00.438,,27370,-11130,-196210
16:19:00.448,,21000,-8820,-196210
16:19:00.458,,18340,-6510,-197190
16:19:00.468,,19670,-6370,-199080
16:19:00.478,,22470,-8330,-201460
16:19:00.488,,25480,-12250,-203070
16:19:00.498,,27580,-18340,-202440
16:19:00.508,,25690,-31780,-191380
16:19:00.518,,28070,-33040,-181370
16:19:00.528,,38780,-30800,-173530
16:19:00.538,,58240,-29400,-169120
16:19:00.548,,80360,-30100,-167090
16:19:00.558,,95340,-30800,-166040
16:19:00.568,,98280,-31010,-165270
16:19:00.578,,90930,-30240,-164150
16:19:00.588,,77210,-28350,-163030
16:19:00.598,,59640,-25970,-162260
16:19:00.608,,40250,-23310,-163100
16:19:00.618,,23730,-18830,-165480
16:19:00.628,,14000,-15400,-167930
16:19:00.638,,5460,-18200,-165620
16:19:00.648,,1680,-21840,-160230
16:19:00.658,,-3780,-26670,-152250
16:19:00.668,,-11340,-30660,-142170
16:19:00.678,,-19180,-31220,-131250
16:19:00.688,,-23520,-27440,-121030
16:19:00.698,,-20720,-20230,-113960
16:19:00.708,,-6650,-12950,-110530
16:19:00.718,,17080,-9870,-107450
16:19:00.728,,38080,-13440,-106050
16:19:00.738,,46900,-19810,-105910
16:19:00.748,,45920,-24080,-105280
16:19:00.758,,36260,-23870,-105210
16:19:00.768,,7350,-16100,-106960
16:19:00.778,,-2380,-11480,-108640
16:19:00.788,,-3500,-7210,-111020
16:19:00.798,,5110,-6020,-114450
16:19:00.808,,16520,-8120,-121240
16:19:00.818,,23940,-10850,-125090
16:19:00.828,,23870,-11970,-124040
16:19:00.838,,17850,-11060,-121870
16:19:00.848,,12600,-9310,-119070
16:19:00.858,,9450,-7700,-115920
16:19:00.868,,7420,-6020,-112490
16:19:00.878,,10220,-3640,-109410
16:19:00.888,,18900,-1400,-108010
16:19:00.898,,36610,420,-107170
16:19:00.908,,35420,560,-104930
16:19:00.918,,24570,1820,-102690
16:19:00.928,,8120,5390,-99120
16:19:00.938,,-2170,10360,-96740
16:19:00.948,,-7420,14840,-96040
16:19:00.958,,-7000,18130,-94920
16:19:00.968,,-1190,18690,-91210
16:19:00.978,,3640,17360,-84630
16:19:00.988,,2660,15750,-75250
16:19:00.998,,-5180,14140,-63000
16:19:01.008,,-16660,11550,-48300
16:19:01.018,,-26320,9380,-19880
16:19:01.028,,-24010,9800,-6720
16:19:01.038,,-15750,9520,5180
16:19:01.048,,-7350,7910,17710
16:19:01.058,,-2870,5390,30590
16:19:01.068,,-1960,2380,42490
16:19:01.078,,-2240,-210,52500
16:19:01.088,,-2660,-2730,61040
16:19:01.098,,-3640,-4900,69230
16:19:01.108,,-4340,-6720,77070
16:19:01.118,,-3990,-8400,84350
16:19:01.128,,-2590,-9590,91140
16:19:01.138,,-1260,-9800,97230
16:19:01.148,,-420,-6720,106120
16:19:01.158,,-280,-6510,111090
16:19:01.168,,-1050,-7350,115640
16:19:01.178,,-2940,-7770,119770
16:19:01.188,,-4690,-7140,123830
16:19:01.198,,-5530,-5880,127540
16:19:01.208,,-6160,-5250,129570
16:19:01.218,,-7490,-4900,130690
16:19:01.228,,-9660,-4550,131810
16:19:01.238,,-12320,-4270,132790
16:19:01.248,,-14840,-4130,134890
16:19:01.258,,-15890,-4480,137900
16:19:01.268,,-16310,-4830,140770
16:19:01.278,,-16590,-2450,145530
16:19:01.288,,-16800,-840,148330
16:19:01.298,,-18200,-1050,150710
16:19:01.308,,-20230,-2240,153510
16:19:01.318,,-21770,-3360,156380
16:19:01.328,,-22260,-3780,158480
16:19:01.338,,-21630,-3500,160370
16:19:01.348,,-21700,-3640,162610
16:19:01.358,,-23940,-5180,164570
16:19:01.368,,-28070,-7770,166880
16:19:01.378,,-34020,-9730,169820
16:19:01.504,,-31920,-6300,190890
16:19:01.506,,-31920,-6300,190890
16:19:01.507,,-31920,-6300,190890
16:19:01.509,,-31920,-6300,190890
16:19:01.510,,-28280,-4200,193620
16:19:01.511,,-28280,-4200,193620
16:19:01.513,,-28280,-4200,193620
16:19:01.514,,-28280,-4200,193620
16:19:01.515,,-28280,-4200,193620
16:19:01.517,,-28280,-4200,193620
16:19:01.518,,-28280,-4200,193620
16:19:01.520,,-24780,-2660,196070
16:19:01.521,,-24780,-2660,196070
16:19:01.522,,-24780,-2660,196070
16:19:01.528,,-24780,-2660,198380
16:19:01.538,,-24150,-1120,200760
16:19:01.548,,-27580,-2030,203000
16:19:01.558,,-32970,-3150,205450
16:19:01.568,,-37660,-3850,207200
16:19:01.578,,-39830,-3920,208250
16:19:01.588,,-39970,-3010,209580
16:19:01.598,,-39620,-1680,211470
16:19:01.608,,-40740,-700,212380
16:19:01.618,,-42770,210,211260
16:19:01.628,,-44100,490,209860
16:19:01.638,,-45360,-140,208180
16:19:01.648,,-43960,-1750,207270
16:19:01.658,,-40740,-4830,203910
16:19:01.668,,-40320,-8540,200620
16:19:01.678,,-42070,-8330,197610
16:19:01.688,,-43400,-6090,194670
16:19:01.698,,-43120,-3080,190820
16:19:01.708,,-41160,-420,186900
16:19:01.718,,-38290,2030,183540
16:19:01.728,,-35140,2590,180320
16:19:01.738,,-32690,560,177030
16:19:01.748,,-30310,-770,173670
16:19:01.758,,-27160,-1260,169890
16:19:01.768,,-24850,-1890,165970
16:19:01.778,,-25550,-3570,162610
16:19:01.788,,-28350,-4270,159600
16:19:01.798,,-33460,-2660,156030
16:19:01.808,,-36610,-490,149240
16:19:01.818,,-42490,2170,141050
16:19:01.828,,-50960,4830,134050
16:19:01.838,,-59920,5740,128940
16:19:01.848,,-66430,4340,126000
16:19:01.858,,-69300,1750,124110
16:19:01.868,,-70700,-70,121170
16:19:01.878,,-73500,70,118230
16:19:01.888,,-73780,280,116550
16:19:01.898,,-68390,-840,113610
16:19:01.908,,-59640,-1750,108850
16:19:01.918,,-46830,-1750,102970
16:19:01.928,,-40670,-560,103880
16:19:01.938,,-31850,1750,104790
16:19:01.948,,-24710,3220,105630
16:19:01.958,,-10360,-210,90090
16:19:01.968,,1190,-4060,80990
16:19:01.978,,-210,-2590,79450
16:19:01.988,,-2660,-2240,77000
16:19:01.998,,70,-4480,66080
16:19:02.008,,8330,-7560,54320
16:19:02.018,,18270,-8050,44030
16:19:02.028,,21210,-4620,32410
16:19:02.038,,21210,0,18060
16:19:02.048,,33880,1540,-22820
16:19:02.058,,33390,-770,-44240
16:19:02.068,,24430,-1610,-61530
16:19:02.078,,15540,-2940,-72870
16:19:02.088,,9310,-5880,-79660
16:19:02.098,,8330,-9380,-86730
16:19:02.108,,11480,-11620,-94920
16:19:02.118,,17220,-11130,-102410
