Sensors' Acquisition [Hz]: Acc@104.0 
hh:mm:ss.ms, Annotation , AccX [mg], AccY, AccZ
12:42:58.344,,12,1050,-631
12:42:58.354,,17,983,-549
12:42:58.364,,21,893,-464
12:42:58.374,,34,839,-366
12:42:58.384,,10,827,-319
12:42:58.394,,-24,837,-262
12:42:58.404,,-28,981,-311
12:42:58.414,,-17,1227,-500
12:42:58.424,,28,1514,-729
12:42:58.434,>Gesture,,,
12:42:58.435,,-38,1477,-746
12:42:58.444,,-108,1388,-659
12:42:58.454,,-93,1349,-607
12:42:58.464,,-57,1436,-623
12:42:58.474,,-35,1521,-713
12:42:58.484,,-51,1615,-667
12:42:58.494,,-36,1743,-720
12:42:58.504,,-40,1792,-768
12:42:58.514,,-56,1911,-850
12:42:58.524,,-40,1997,-1013
12:42:58.534,,-22,1997,-1156
12:42:58.544,,-67,1997,-1207
12:42:58.554,,-205,1997,-1248
12:42:58.564,,-282,1997,-1193
12:42:58.574,,-309,1997,-1112
12:42:58.584,,-231,1982,-1007
12:42:58.594,,-113,1975,-921
12:42:58.604,,23,1992,-905
12:42:58.614,,115,1997,-923
12:42:58.624,,140,1997,-957
12:42:58.634,,83,1997,-991
12:42:58.644,,-2,1991,-984
12:42:58.654,,-62,1895,-888
12:42:58.664,,-119,1742,-774
12:42:58.674,,-151,1598,-626
12:42:58.684,,-78,1369,-560
12:42:58.694,,15,1314,-502
12:42:58.704,,83,1214,-411
12:42:58.714,,97,1094,-339
12:42:58.724,,113,1042,-325
12:42:58.734,,88,990,-356
12:42:58.744,,42,915,-361
12:42:58.754,,-9,847,-372
12:42:58.764,,-28,746,-352
12:42:58.774,,-16,660,-330
12:42:58.784,,-36,595,-282
12:42:58.794,,-39,530,-250
12:42:58.804,,4,532,-349
12:42:58.814,,50,464,-394
12:42:58.824,,33,403,-393
12:42:58.834,,20,330,-340
12:42:58.844,,47,252,-261
12:42:58.854,,101,193,-235
12:42:58.864,,131,167,-219
12:42:58.874,,138,77,-132
12:42:58.884,,101,34,-88
12:42:58.894,,75,-35,-76
12:42:58.904,,62,-93,-89
12:42:58.914,,-1,-109,-148
12:42:58.924,,-80,-135,-189
12:42:58.934,,-129,-161,-196
12:42:58.944,,-155,-192,-94
12:42:58.954,,-137,-318,65
12:42:58.964,,-113,-380,115
12:42:58.974,,-87,-360,76
12:42:58.984,,-96,-349,23
12:42:58.994,,-170,-342,-3
12:42:59.004,,-263,-339,-9
12:42:59.014,,-407,-335,-18
12:42:59.024,,-546,-360,12
12:42:59.034,,-528,-376,112
12:42:59.044,,-458,-377,235
12:42:59.054,,-351,-467,313
12:42:59.064,,-195,-449,333
12:42:59.074,,-254,-318,286
12:42:59.084,,-361,-240,245
12:42:59.094,,-529,-221,275
12:42:59.104,,-684,-298,325
12:42:59.114,,-844,-349,394
12:42:59.124,,-1006,-397,360
12:42:59.134,,-1045,-378,327
12:42:59.144,,-1095,-281,280
12:42:59.154,,-1182,-224,208
12:42:59.164,,-1221,-238,71
12:42:59.174,,-1325,-157,48
12:42:59.184,,-1363,-52,49
12:42:59.194,,-1789,-186,24
12:42:59.204,,-1985,-330,147
12:42:59.214,,-1998,-463,271
12:42:59.224,,-1998,-559,410
12:42:59.234,,-1998,-713,538
12:42:59.244,,-1998,-892,595
12:42:59.254,,-1998,-1043,570
12:42:59.264,,-1998,-1056,450
12:42:59.274,,-1998,-985,344
12:42:59.284,,-1998,-868,325
12:42:59.294,,-1998,-749,332
12:42:59.304,,-1998,-687,381
12:42:59.314,,-1998,-718,479
12:42:59.324,,-1998,-854,611
12:42:59.334,,-1998,-937,701
12:42:59.344,,-1998,-940,685
12:42:59.354,,-1980,-868,617
12:42:59.364,,-1906,-766,503
12:42:59.374,,-1837,-674,401
12:42:59.384,,-1714,-599,310
12:42:59.394,,-1625,-529,247
12:42:59.404,,-1553,-495,203
12:42:59.414,,-1458,-541,241
12:42:59.424,,-1358,-618,321
12:42:59.434,,-1310,-703,491
12:42:59.444,,-1290,-773,679
12:42:59.454,,-1276,-719,630
12:42:59.464,,-1254,-583,488
12:42:59.474,,-1208,-442,353
12:42:59.484,,-1086,-347,244
12:42:59.494,,-1042,-337,165
12:42:59.504,,-912,-305,137
12:42:59.514,,-794,-261,151
12:42:59.524,,-704,-239,156
12:42:59.534,,-626,-225,193
12:42:59.544,,-562,-261,242
12:42:59.554,,-515,-287,257
12:42:59.564,,-482,-221,184
12:42:59.574,,-455,-197,132
12:42:59.584,,-399,-28,116
12:42:59.594,,-382,32,77
12:42:59.604,,-356,61,52
12:42:59.614,,-335,93,29
12:42:59.624,,-265,175,-18
12:42:59.634,,-192,322,-98
12:42:59.644,,-143,456,-174
12:42:59.654,,-58,480,-246
12:42:59.664,,24,501,-264
12:42:59.674,,63,517,-255
12:42:59.684,,96,466,-169
12:42:59.694,,71,402,-76
12:42:59.704,,75,490,-164
12:42:59.714,,130,621,-228
12:42:59.724,,172,676,-345
12:42:59.734,,138,750,-460
12:42:59.744,,137,778,-515
12:42:59.754,,142,747,-512
12:42:59.764,,97,652,-405
12:42:59.774,,96,541,-245
12:42:59.925,,-114,1612,-706
12:42:59.926,,-114,1612,-706
12:42:59.928,,-130,1690,-752
12:42:59.929,,-130,1690,-752
12:42:59.930,,-130,1690,-752
12:42:59.932,,-130,1690,-752
12:42:59.933,,-130,1690,-752
12:42:59.934,,-130,1690,-752
12:42:59.936,,-130,1690,-752
12:42:59.937,,-212,1776,-862
12:42:59.939,,-212,1776,-862
12:42:59.940,,-212,1776,-862
12:42:59.941,,-212,1776,-862
12:42:59.943,,-212,1776,-862
12:42:59.944,,-212,1776,-862
12:42:59.945,,-212,1895,-1007
12:42:59.947,,-237,1895,-1007
12:42:59.954,,-237,1895,-1007
12:42:59.964,,-366,1997,-1208
12:42:59.974,,-404,1997,-1332
12:42:59.984,,-431,1997,-1569
12:42:59.994,,-460,1997,-1482
12:43:00.004,,-503,1997,-1286
12:43:00.014,,-479,1997,-1162
12:43:00.024,,-415,1992,-1110
12:43:00.034,,-360,1984,-1090
12:43:00.044,,-244,1986,-1090
12:43:00.054,,-127,1961,-1067
12:43:00.064,,-68,1930,-1048
12:43:00.074,,-19,1900,-1060
12:43:00.084,,36,1829,-992
12:43:00.094,,38,1627,-866
12:43:00.104,,74,1456,-764
12:43:00.114,,143,1364,-711
12:43:00.124,,181,1302,-709
12:43:00.134,,254,1216,-662
12:43:00.144,,305,1195,-696
12:43:00.154,,294,1081,-592
12:43:00.164,,294,967,-497
12:43:00.174,,269,876,-439
12:43:00.184,,250,774,-429
12:43:00.194,,211,689,-383
12:43:00.204,,199,601,-301
12:43:00.214,,186,528,-290
12:43:00.224,,173,525,-418
12:43:00.234,,78,469,-442
12:43:00.244,,-2,405,-457
12:43:00.254,,-10,392,-493
12:43:00.264,,-7,375,-451
12:43:00.274,,-31,285,-349
12:43:00.284,,-40,226,-187
12:43:00.294,,-90,84,-60
12:43:00.304,,-66,-35,-63
12:43:00.314,,0,-42,-59
12:43:00.324,,49,-27,-52
12:43:00.334,,40,-64,1
12:43:00.344,,37,-154,84
12:43:00.354,,-1,-312,54
12:43:00.364,,-14,-291,17
12:43:00.374,,-62,-308,11
12:43:00.384,,-141,-294,26
12:43:00.394,,-159,-288,86
12:43:00.404,,-109,-338,122
12:43:00.414,,-88,-347,120
12:43:00.424,,-87,-369,160
12:43:00.434,,-120,-437,247
12:43:00.444,,-173,-525,316
12:43:00.454,,-219,-555,350
12:43:00.464,,-243,-499,331
12:43:00.474,,-242,-407,202
12:43:00.484,,-318,-352,143
12:43:00.494,,-378,-380,158
12:43:00.504,,-484,-480,224
12:43:00.514,,-585,-535,288
12:43:00.524,,-619,-522,324
12:43:00.534,,-675,-472,329
12:43:00.544,,-802,-397,261
12:43:00.554,,-1013,-350,175
12:43:00.564,,-1135,-473,120
12:43:00.574,,-1176,-530,94
12:43:00.584,,-1229,-559,120
12:43:00.594,,-1169,-590,201
12:43:00.604,,-1122,-481,361
12:43:00.614,,-1107,-434,287
12:43:00.624,,-1219,-409,222
12:43:00.634,,-1369,-457,190
12:43:00.644,,-1655,-515,261
12:43:00.654,,-1970,-575,384
12:43:00.664,,-1998,-695,425
12:43:00.674,,-1998,-791,366
12:43:00.684,,-1998,-807,267
12:43:00.694,,-1998,-773,200
12:43:00.704,,-1998,-647,174
12:43:00.714,,-1998,-557,123
12:43:00.724,,-1998,-556,63
12:43:00.734,,-1998,-661,111
12:43:00.744,,-1998,-736,212
12:43:00.754,,-1998,-795,301
12:43:00.764,,-1998,-807,368
12:43:00.774,,-1998,-806,379
12:43:00.784,,-1998,-764,325
12:43:00.794,,-1998,-650,238
12:43:00.804,,-1966,-531,127
12:43:00.814,,-1870,-488,94
12:43:00.824,,-1791,-544,109
12:43:00.834,,-1707,-620,167
12:43:00.844,,-1591,-654,232
12:43:00.854,,-1530,-633,282
12:43:00.864,,-1337,-576,273
12:43:00.874,,-1276,-525,218
12:43:00.884,,-1172,-486,160
12:43:00.894,,-1068,-456,74
12:43:00.904,,-1006,-425,48
12:43:00.914,,-925,-436,86
12:43:00.924,,-883,-447,124
12:43:00.934,,-826,-444,170
12:43:00.944,,-767,-422,177
12:43:00.954,,-711,-421,125
12:43:00.964,,-667,-393,94
12:43:00.974,,-655,-360,79
12:43:00.984,,-671,-325,-86
12:43:00.994,,-636,-228,-149
12:43:01.004,,-601,-162,-200
12:43:01.014,,-546,-134,-240
12:43:01.024,,-473,-79,-273
12:43:01.034,,-403,-4,-289
12:43:01.044,,-333,60,-305
12:43:01.054,,-237,97,-335
12:43:01.064,,-170,107,-327
12:43:01.074,,-132,97,-277
12:43:01.084,,-129,51,-229
12:43:01.094,,-102,-11,-179
12:43:01.104,,-41,-9,-178
12:43:01.114,,-16,41,-253
12:43:01.124,,14,130,-289
12:43:01.134,,47,169,-265
12:43:01.144,,87,145,-199
12:43:01.154,,133,119,-188
12:43:01.164,,166,160,-154
12:43:01.174,,185,187,-114
12:43:01.184,,137,185,-81
12:43:01.194,,55,146,0
12:43:01.204,,-22,136,45
12:43:01.214,,-65,167,33
12:43:01.224,,-55,313,-37
12:43:01.234,,-10,528,-130
12:43:01.244,,31,910,-535
12:43:01.395,,62,1753,-1117
12:43:01.397,,62,1753,-1117
12:43:01.398,,62,1753,-1117
12:43:01.400,,62,1753,-1117
12:43:01.401,,62,1753,-1117
12:43:01.402,,113,1850,-1176
12:43:01.404,,113,1850,-1176
12:43:01.405,,113,1850,-1176
12:43:01.406,,113,1850,-1176
12:43:01.408,,113,1850,-1176
12:43:01.409,,113,1850,-1176
12:43:01.410,,113,1850,-1176
12:43:01.412,,155,1918,-1307
12:43:01.413,,155,1918,-1307
12:43:01.415,,155,1918,-1307
12:43:01.416,,155,1918,-1307
12:43:01.417,,155,1918,-1307
12:43:01.424,,205,1895,-1102
12:43:01.434,,246,1938,-1111
12:43:01.444,,207,1929,-1212
12:43:01.454,,177,1959,-1307
12:43:01.464,,190,1996,-1359
12:43:01.474,,208,1997,-1382
12:43:01.484,,207,1997,-1399
12:43:01.494,,261,1997,-1397
12:43:01.504,,252,1943,-1216
12:43:01.514,,265,1842,-1071
12:43:01.524,,241,1784,-967
12:43:01.534,,175,1713,-903
12:43:01.544,,144,1640,-898
12:43:01.554,,143,1619,-940
12:43:01.564,,104,1612,-996
12:43:01.574,,57,1575,-1061
12:43:01.584,,63,1523,-1077
12:43:01.594,,82,1438,-968
12:43:01.604,,116,1330,-803
12:43:01.614,,159,1239,-689
12:43:01.624,,227,1181,-612
12:43:01.634,,272,1077,-534
12:43:01.644,,300,1002,-488
12:43:01.654,,329,938,-417
12:43:01.664,,303,844,-372
12:43:01.674,,312,719,-328
12:43:01.684,,305,669,-299
12:43:01.694,,287,604,-318
12:43:01.704,,253,533,-363
12:43:01.714,,221,493,-374
12:43:01.724,,185,441,-359
12:43:01.734,,166,379,-341
12:43:01.744,,156,337,-346
12:43:01.754,,146,280,-288
12:43:01.764,,96,154,-279
12:43:01.774,,53,90,-217
12:43:01.784,,5,-5,-205
12:43:01.794,,2,-58,-202
12:43:01.804,,-5,-76,-227
12:43:01.814,,-50,-92,-257
12:43:01.824,,-77,-127,-267
12:43:01.834,,-103,-186,-230
12:43:01.844,,-110,-270,-204
12:43:01.854,,-107,-313,-193
12:43:01.864,,-110,-344,-193
12:43:01.874,,-94,-371,-163
12:43:01.884,,-64,-398,-33
12:43:01.894,,-46,-495,6
12:43:01.904,,-46,-499,-35
12:43:01.914,,-52,-447,-102
12:43:01.924,,-90,-427,-150
12:43:01.934,,-139,-422,-161
12:43:01.944,,-157,-435,-154
12:43:01.954,,-178,-464,-144
12:43:01.964,,-207,-492,-101
12:43:01.974,,-198,-491,-78
12:43:01.984,,-209,-446,-90
12:43:01.994,,-224,-445,-18
12:43:02.004,,-209,-485,74
12:43:02.014,,-232,-552,165
12:43:02.024,,-242,-556,147
12:43:02.034,,-290,-478,90
12:43:02.044,,-335,-410,70
12:43:02.054,,-345,-379,98
12:43:02.064,,-361,-310,184
12:43:02.074,,-414,-324,319
12:43:02.084,,-518,-410,485
12:43:02.094,,-623,-547,655
12:43:02.104,,-755,-649,608
12:43:02.114,,-930,-707,473
12:43:02.124,,-1059,-679,316
12:43:02.134,,-1177,-631,190
12:43:02.144,,-1415,-653,352
12:43:02.154,,-1535,-847,513
12:43:02.164,,-1697,-986,700
12:43:02.174,,-1763,-1216,847
12:43:02.184,,-1812,-1446,940
12:43:02.194,,-1922,-1498,944
12:43:02.204,,-1992,-1425,863
12:43:02.214,,-1998,-1354,788
12:43:02.224,,-1998,-1296,732
12:43:02.234,,-1998,-1271,673
12:43:02.244,,-1998,-1287,624
12:43:02.254,,-1998,-1352,605
12:43:02.264,,-1998,-1401,615
12:43:02.274,,-1998,-1303,653
12:43:02.284,,-1988,-1244,656
12:43:02.294,,-1923,-1228,661
12:43:02.304,,-1886,-1194,637
12:43:02.314,,-1858,-1207,638
12:43:02.324,,-1822,-1227,621
12:43:02.334,,-1743,-1224,582
12:43:02.344,,-1659,-1161,574
12:43:02.354,,-1551,-1105,589
12:43:02.364,,-1480,-1075,596
12:43:02.374,,-1390,-1060,605
12:43:02.384,,-1297,-1026,620
12:43:02.394,,-1207,-984,586
12:43:02.404,,-1101,-849,445
12:43:02.414,,-1073,-785,378
12:43:02.424,,-1037,-741,321
12:43:02.434,,-975,-715,287
12:43:02.444,,-919,-706,289
12:43:02.454,,-858,-715,310
12:43:02.464,,-787,-667,316
12:43:02.474,,-722,-553,252
12:43:02.484,,-684,-431,162
12:43:02.494,,-634,-368,122
12:43:02.504,,-557,-351,146
12:43:02.514,,-511,-331,146
12:43:02.524,,-455,-302,133
12:43:02.534,,-388,-239,91
12:43:02.544,,-371,-215,96
12:43:02.554,,-347,-211,65
12:43:02.564,,-323,-170,-10
12:43:02.574,,-304,-96,-65
12:43:02.584,,-277,-28,-139
12:43:02.594,,-258,50,-222
12:43:02.604,,-238,100,-278
12:43:02.614,,-203,124,-311
12:43:02.624,,-167,152,-316
12:43:02.634,,-136,189,-298
12:43:02.644,,-107,225,-290
12:43:02.654,,-62,238,-260
12:43:02.664,,7,215,-222
12:43:02.674,,41,179,-208
12:43:02.684,,68,172,-230
12:43:02.694,,100,246,-265
12:43:02.845,,55,844,-625
12:43:02.846,,55,844,-625
12:43:02.847,,55,844,-625
12:43:02.849,,55,877,-684
12:43:02.850,,10,877,-684
12:43:02.851,,10,877,-684
12:43:02.853,,10,877,-684
12:43:02.854,,10,877,-684
12:43:02.856,,10,877,-684
12:43:02.857,,10,877,-684
12:43:02.858,,-48,930,-683
12:43:02.860,,-48,930,-683
12:43:02.861,,-48,930,-683
12:43:02.862,,-48,930,-683
12:43:02.864,,-48,930,-683
12:43:02.865,,-48,930,-683
12:43:02.866,,-48,930,-683
12:43:02.874,,-112,914,-688
12:43:02.884,,-159,978,-717
12:43:02.894,,-155,1110,-787
12:43:02.904,,-122,1178,-864
12:43:02.914,,-71,1343,-959
12:43:02.924,,-2,1469,-841
12:43:02.934,,0,1595,-972
12:43:02.944,,-19,1618,-1071
12:43:02.954,,-69,1649,-1168
12:43:02.964,,-88,1734,-1190
12:43:02.974,,-133,1788,-1223
12:43:02.984,,-226,1807,-1286
12:43:02.994,,-275,1822,-1343
12:43:03.004,,-317,1873,-1418
12:43:03.014,,-356,1895,-1460
12:43:03.024,,-359,1898,-1445
12:43:03.034,,-361,1853,-1386
12:43:03.044,,-307,1777,-1167
12:43:03.054,,-258,1794,-1133
12:43:03.064,,-191,1812,-1130
12:43:03.074,,-192,1829,-1138
12:43:03.084,,-264,1802,-1172
12:43:03.094,,-325,1782,-1190
12:43:03.104,,-356,1712,-1197
12:43:03.114,,-382,1630,-1155
12:43:03.124,,-375,1571,-1092
12:43:03.134,,-283,1523,-999
12:43:03.144,,-197,1497,-937
12:43:03.154,,-123,1445,-874
12:43:03.164,,-92,1405,-816
12:43:03.174,,-56,1212,-640
12:43:03.184,,-33,1094,-538
12:43:03.194,,-17,1024,-482
12:43:03.204,,-2,1024,-519
12:43:03.214,,17,1021,-549
12:43:03.224,,27,964,-554
12:43:03.234,,14,905,-505
12:43:03.244,,0,848,-442
12:43:03.254,,98,747,-353
12:43:03.264,,137,674,-312
12:43:03.274,,146,618,-329
12:43:03.284,,178,596,-391
12:43:03.294,,87,567,-377
12:43:03.304,,-77,463,-413
12:43:03.314,,-111,420,-380
12:43:03.324,,-135,325,-272
12:43:03.334,,-165,220,-188
12:43:03.344,,-186,115,-106
12:43:03.354,,-201,2,-29
12:43:03.364,,-203,-129,-5
12:43:03.374,,-232,-199,-38
12:43:03.384,,-272,-192,-93
12:43:03.394,,-272,-198,-181
12:43:03.404,,-305,-193,-272
12:43:03.414,,-355,-181,-368
12:43:03.424,,-372,-194,-436
12:43:03.434,,-433,-258,-408
12:43:03.444,,-379,-314,-307
12:43:03.454,,-266,-362,-225
12:43:03.464,,-200,-397,-161
12:43:03.474,,-109,-390,-108
12:43:03.484,,-92,-361,-96
12:43:03.494,,-131,-402,-83
12:43:03.504,,-141,-411,-89
12:43:03.514,,-193,-380,-123
12:43:03.524,,-236,-379,-143
12:43:03.534,,-252,-389,-134
12:43:03.544,,-288,-381,-132
12:43:03.554,,-327,-337,38
12:43:03.564,,-378,-374,203
12:43:03.574,,-359,-354,270
12:43:03.584,,-413,-313,250
12:43:03.594,,-530,-251,191
12:43:03.604,,-655,-242,140
12:43:03.614,,-789,-224,99
12:43:03.624,,-931,-147,32
12:43:03.634,,-1129,-157,-45
12:43:03.644,,-1315,-200,-126
12:43:03.654,,-1441,-235,-127
12:43:03.664,,-1569,-342,-67
12:43:03.674,,-1550,-509,233
12:43:03.684,,-1500,-575,418
12:43:03.694,,-1454,-560,314
12:43:03.704,,-1482,-490,217
12:43:03.714,,-1604,-392,175
12:43:03.724,,-1752,-356,194
12:43:03.734,,-1939,-395,239
12:43:03.744,,-1998,-501,314
12:43:03.754,,-1998,-600,387
12:43:03.764,,-1998,-725,396
12:43:03.774,,-1998,-781,418
12:43:03.784,,-1998,-790,366
12:43:03.794,,-1998,-723,320
12:43:03.804,,-1998,-606,206
12:43:03.814,,-1998,-464,21
12:43:03.824,,-1998,-462,55
12:43:03.834,,-1998,-503,142
12:43:03.844,,-1998,-563,276
12:43:03.854,,-1998,-577,356
12:43:03.864,,-1998,-571,381
12:43:03.874,,-1953,-572,376
12:43:03.884,,-1833,-548,359
12:43:03.894,,-1767,-505,305
12:43:03.904,,-1689,-445,202
12:43:03.914,,-1592,-416,140
12:43:03.924,,-1489,-444,170
12:43:03.934,,-1376,-447,170
12:43:03.944,,-1241,-389,186
12:43:03.954,,-1184,-348,170
12:43:03.964,,-1134,-347,162
12:43:03.974,,-1068,-363,184
12:43:03.984,,-1000,-367,190
12:43:03.994,,-1002,-341,166
12:43:04.004,,-1005,-350,148
12:43:04.014,,-987,-310,128
12:43:04.024,,-980,-258,40
12:43:04.034,,-949,-180,-31
12:43:04.044,,-917,-97,-105
12:43:04.054,,-865,-57,-178
12:43:04.064,,-777,-26,-106
12:43:04.074,,-696,11,-67
12:43:04.084,,-620,25,-76
12:43:04.094,,-543,80,-87
12:43:04.104,,-453,170,-118
12:43:04.114,,-375,260,-134
12:43:04.124,,-282,282,-150
12:43:04.134,,-214,296,-156
12:43:04.144,,-157,358,-194
12:43:04.284,,228,829,-576
12:43:04.285,,228,829,-576
12:43:04.287,,238,949,-716
12:43:04.288,,238,949,-716
12:43:04.289,,238,949,-716
12:43:04.291,,238,949,-716
12:43:04.292,,238,949,-716
12:43:04.294,,238,949,-716
12:43:04.295,,238,949,-716
12:43:04.296,,223,951,-772
12:43:04.298,,223,951,-772
12:43:04.299,,223,951,-772
12:43:04.300,,223,951,-772
12:43:04.302,,223,951,-772
12:43:04.303,,223,951,-772
12:43:04.305,,223,951,-772
12:43:04.314,,203,902,-720
12:43:04.324,,147,824,-508
12:43:04.334,,145,866,-486
12:43:04.344,,161,949,-557
12:43:04.354,,168,1021,-623
12:43:04.364,,173,1094,-710
12:43:04.374,,149,1140,-739
12:43:04.384,,130,1160,-721
12:43:04.394,,99,1135,-649
12:43:04.404,,76,1092,-550
12:43:04.414,,63,1184,-583
12:43:04.424,,77,1290,-619
12:43:04.434,,92,1409,-676
12:43:04.444,,78,1559,-739
12:43:04.454,,159,1807,-765
12:43:04.464,,190,1961,-842
12:43:04.474,,262,1997,-968
12:43:04.484,,397,1997,-1088
12:43:04.494,,521,1997,-1106
12:43:04.504,,555,1997,-1095
12:43:04.514,,466,1997,-1061
12:43:04.524,,335,1997,-1107
12:43:04.534,,227,1997,-1200
12:43:04.544,,153,1997,-1232
12:43:04.554,,98,1997,-1210
12:43:04.564,,98,1997,-1124
12:43:04.574,,106,1990,-1013
12:43:04.584,,150,1862,-892
12:43:04.594,,184,1847,-870
12:43:04.604,,221,1801,-838
12:43:04.614,,225,1748,-771
12:43:04.624,,237,1750,-752
12:43:04.634,,213,1749,-872
12:43:04.644,,155,1736,-908
12:43:04.654,,103,1627,-851
12:43:04.664,,79,1500,-747
12:43:04.674,,83,1391,-639
12:43:04.684,,121,1329,-576
12:43:04.694,,185,1282,-596
12:43:04.704,,254,1213,-559
12:43:04.714,,328,1024,-385
12:43:04.724,,416,1000,-342
12:43:04.734,,457,965,-367
12:43:04.744,,484,921,-359
12:43:04.754,,488,878,-342
12:43:04.764,,479,801,-306
12:43:04.774,,350,720,-207
12:43:04.784,,237,609,-153
12:43:04.794,,166,485,-112
12:43:04.804,,130,381,-109
12:43:04.814,,127,327,-167
12:43:04.824,,115,303,-197
12:43:04.834,,101,234,-226
12:43:04.844,,81,165,-222
12:43:04.854,,68,91,-174
12:43:04.864,,52,12,-135
12:43:04.874,,25,-62,-109
12:43:04.884,,14,-115,-109
12:43:04.894,,-19,-169,-99
12:43:04.904,,-48,-225,-133
12:43:04.914,,-68,-238,-196
12:43:04.924,,-67,-249,-260
12:43:04.934,,-35,-250,-306
12:43:04.944,,-13,-205,-328
12:43:04.954,,-30,-207,-285
12:43:04.964,,-39,-312,-125
12:43:04.974,,-155,-342,-93
12:43:04.984,,-207,-352,-83
12:43:04.994,,-264,-359,-115
12:43:05.004,,-315,-404,-177
12:43:05.014,,-344,-431,-251
12:43:05.024,,-416,-433,-302
12:43:05.034,,-492,-443,-346
12:43:05.044,,-571,-479,-357
12:43:05.054,,-598,-501,-330
12:43:05.064,,-605,-509,-283
12:43:05.074,,-605,-548,-210
12:43:05.084,,-558,-611,-144
12:43:05.094,,-440,-698,-34
12:43:05.104,,-364,-690,-31
12:43:05.114,,-283,-652,-26
12:43:05.124,,-238,-571,-24
12:43:05.134,,-246,-491,-61
12:43:05.144,,-278,-473,-56
12:43:05.154,,-280,-463,-134
12:43:05.164,,-281,-480,-93
12:43:05.174,,-298,-447,-11
12:43:05.184,,-329,-466,38
12:43:05.194,,-364,-488,96
12:43:05.204,,-439,-502,157
12:43:05.214,,-475,-496,186
12:43:05.224,,-693,-543,206
12:43:05.234,,-839,-578,200
12:43:05.244,,-985,-621,195
12:43:05.254,,-1130,-655,269
12:43:05.264,,-1263,-681,310
12:43:05.274,,-1375,-732,338
12:43:05.284,,-1524,-822,363
12:43:05.294,,-1699,-916,497
12:43:05.304,,-1897,-1009,481
12:43:05.314,,-1998,-994,390
12:43:05.324,,-1998,-991,257
12:43:05.334,,-1998,-1001,171
12:43:05.344,,-1998,-1031,199
12:43:05.354,,-1998,-1133,364
12:43:05.364,,-1998,-1188,444
12:43:05.374,,-1998,-1186,472
12:43:05.384,,-1998,-1178,419
12:43:05.394,,-1998,-1125,350
12:43:05.404,,-1998,-1058,317
12:43:05.414,,-1998,-998,290
12:43:05.424,,-1998,-951,317
12:43:05.434,,-1998,-930,327
12:43:05.444,,-1998,-864,284
12:43:05.454,,-1948,-837,320
12:43:05.464,,-1807,-839,352
12:43:05.474,,-1699,-801,342
12:43:05.484,,-1548,-723,384
12:43:05.494,,-1484,-681,353
12:43:05.504,,-1430,-615,280
12:43:05.514,,-1396,-576,258
12:43:05.524,,-1382,-598,260
12:43:05.534,,-1360,-574,280
12:43:05.544,,-1342,-555,297
12:43:05.554,,-1292,-515,337
12:43:05.564,,-1240,-434,335
12:43:05.574,,-1149,-345,301
12:43:05.584,,-1054,-234,245
12:43:05.594,,-957,-158,209
12:43:05.604,,-845,-100,181
12:43:05.745,,133,545,-85
12:43:05.747,,133,545,-85
12:43:05.748,,133,545,-85
12:43:05.749,,133,545,-85
12:43:05.751,,133,545,-85
12:43:05.752,,133,545,-71
12:43:05.754,,173,531,-71
12:43:05.755,,173,531,-71
12:43:05.756,,173,531,-71
12:43:05.758,,173,531,-71
12:43:05.759,,173,531,-71
12:43:05.760,,173,531,-71
12:43:05.762,,160,510,-125
12:43:05.763,,160,510,-125
12:43:05.764,,160,510,-125
12:43:05.766,,160,510,-125
12:43:05.774,,165,561,-218
12:43:05.784,,188,638,-282
12:43:05.794,,180,721,-382
12:43:05.804,,214,808,-472
12:43:05.814,,273,873,-523
12:43:05.824,,337,871,-443
12:43:05.834,,345,781,-345
12:43:05.844,,332,702,-239
12:43:05.854,,307,634,-115
12:43:05.864,,226,686,-112
12:43:05.874,,253,854,-274
12:43:05.884,,261,971,-419
12:43:05.894,,270,1027,-532
12:43:05.904,,251,1065,-559
12:43:05.914,,202,1023,-447
12:43:05.924,,182,987,-351
12:43:05.934,,203,1040,-315
12:43:05.944,,243,1123,-331
12:43:05.954,,252,1216,-389
12:43:05.964,,233,1387,-497
12:43:05.974,,216,1567,-658
12:43:05.984,,246,1744,-955
12:43:05.994,,347,1916,-968
12:43:06.004,,366,1958,-1117
12:43:06.014,,412,1992,-1134
12:43:06.024,,483,1997,-1187
12:43:06.034,,537,1997,-1261
12:43:06.044,,534,1997,-1283
12:43:06.054,,521,1997,-1297
12:43:06.064,,576,1997,-1269
12:43:06.074,,666,1997,-1252
12:43:06.084,,763,1997,-1245
12:43:06.094,,880,1997,-1208
12:43:06.104,,943,1997,-1156
12:43:06.114,,894,1997,-1046
12:43:06.124,,597,1900,-804
12:43:06.134,,496,1782,-748
12:43:06.144,,445,1687,-715
12:43:06.154,,423,1601,-685
12:43:06.164,,405,1522,-626
12:43:06.174,,406,1461,-607
12:43:06.184,,416,1415,-610
12:43:06.194,,434,1356,-597
12:43:06.204,,451,1293,-564
12:43:06.214,,483,1245,-515
12:43:06.224,,496,1188,-455
12:43:06.234,,506,1124,-389
12:43:06.244,,492,1065,-332
12:43:06.254,,496,895,-214
12:43:06.264,,511,845,-223
12:43:06.274,,561,828,-242
12:43:06.284,,564,804,-288
12:43:06.294,,527,822,-354
12:43:06.304,,498,813,-411
12:43:06.314,,458,795,-435
12:43:06.324,,413,713,-393
12:43:06.334,,330,627,-282
12:43:06.344,,249,547,-228
12:43:06.354,,210,462,-200
12:43:06.364,,180,398,-230
12:43:06.374,,168,363,-224
12:43:06.384,,89,263,-261
12:43:06.394,,56,246,-287
12:43:06.404,,14,170,-267
12:43:06.414,,-19,90,-254
12:43:06.424,,-53,32,-236
12:43:06.434,,-56,-55,-180
12:43:06.444,,-56,-130,-154
12:43:06.454,,-45,-163,-167
12:43:06.464,,1,-189,-191
12:43:06.474,,32,-194,-204
12:43:06.484,,31,-221,-209
12:43:06.494,,38,-234,-230
12:43:06.504,,36,-266,-246
12:43:06.514,,20,-298,-215
12:43:06.524,,20,-334,-167
12:43:06.534,,4,-384,-110
12:43:06.544,,-12,-402,-88
12:43:06.554,,-28,-388,-77
12:43:06.564,,-20,-380,-68
12:43:06.574,,-9,-356,-71
12:43:06.584,,-10,-372,-54
12:43:06.594,,-31,-405,-25
12:43:06.604,,-70,-435,-1
12:43:06.614,,-86,-459,3
12:43:06.624,,-96,-438,2
12:43:06.634,,-76,-384,60
12:43:06.644,,-38,-367,130
12:43:06.654,,-36,-384,217
12:43:06.664,,-72,-436,261
12:43:06.674,,-179,-489,306
12:43:06.684,,-312,-487,386
12:43:06.694,,-465,-511,403
12:43:06.704,,-636,-528,440
12:43:06.714,,-796,-519,349
12:43:06.724,,-951,-502,226
12:43:06.734,,-1075,-507,143
12:43:06.744,,-1190,-512,148
12:43:06.754,,-1326,-577,263
12:43:06.764,,-1650,-830,463
12:43:06.774,,-1785,-873,523
12:43:06.784,,-1937,-942,673
12:43:06.794,,-1998,-1089,794
12:43:06.804,,-1998,-1215,793
12:43:06.813,,-1998,-1259,781
12:43:06.823,,-1998,-1276,692
12:43:06.834,,-1998,-1261,577
12:43:06.843,,-1998,-1218,483
12:43:06.853,,-1998,-1167,471
12:43:06.864,,-1998,-1129,490
12:43:06.873,,-1998,-1076,486
12:43:06.883,,-1998,-1035,464
12:43:06.894,,-1998,-976,471
12:43:06.903,,-1998,-979,478
12:43:06.913,,-1994,-965,473
12:43:06.924,,-1888,-921,449
12:43:06.933,,-1772,-819,363
12:43:06.943,,-1717,-738,308
12:43:06.954,,-1585,-790,293
12:43:06.963,,-1418,-763,276
12:43:06.973,,-1308,-660,206
12:43:06.983,,-1202,-546,91
12:43:06.993,,-1124,-446,5
12:43:07.003,,-1084,-412,-22
12:43:07.013,,-1067,-455,17
12:43:07.023,,-1040,-508,64
12:43:07.033,,-1018,-459,18
12:43:07.043,,-1020,-388,-65
12:43:07.053,,-1044,-336,-128
12:43:07.063,,-1044,-342,-157
12:43:07.073,,-1031,-358,-155
12:43:07.083,,-996,-336,-176
12:43:07.225,,-76,-29,-188
12:43:07.227,,-76,-29,-188
12:43:07.228,,-27,26,-223
12:43:07.229,,-27,26,-223
12:43:07.231,,-27,26,-223
12:43:07.232,,-27,26,-223
12:43:07.234,,-27,26,-223
12:43:07.235,,-27,26,-223
12:43:07.236,,-27,26,-246
12:43:07.238,,9,58,-246
12:43:07.239,,9,58,-246
12:43:07.240,,9,58,-246
12:43:07.242,,9,58,-246
12:43:07.243,,9,58,-246
12:43:07.244,,9,58,-246
12:43:07.246,,53,107,-234
12:43:07.253,,53,107,-234
12:43:07.263,,92,96,-255
12:43:07.273,,143,109,-249
12:43:07.283,,257,108,-220
12:43:07.293,,287,96,-168
12:43:07.303,,288,68,-110
12:43:07.313,,277,77,-100
12:43:07.323,,253,143,-129
12:43:07.333,,263,183,-150
12:43:07.343,,303,215,-205
12:43:07.353,,308,299,-287
12:43:07.363,,323,334,-332
12:43:07.373,,380,382,-344
12:43:07.383,,461,470,-328
12:43:07.393,,516,522,-283
12:43:07.403,,484,417,-85
12:43:07.413,,487,397,-69
12:43:07.423,,510,510,-121
12:43:07.433,,534,608,-198
12:43:07.443,,546,694,-260
12:43:07.453,,543,782,-318
12:43:07.463,,580,871,-348
12:43:07.473,,568,904,-315
12:43:07.483,,553,893,-301
12:43:07.493,,560,959,-343
12:43:07.503,,566,1037,-388
12:43:07.513,,557,1081,-404
12:43:07.523,,532,1115,-444
12:43:07.533,,456,1184,-468
12:43:07.543,,395,1261,-430
12:43:07.553,,358,1310,-448
12:43:07.563,,398,1442,-519
12:43:07.573,,496,1585,-473
12:43:07.583,,599,1795,-698
12:43:07.593,,707,1951,-816
12:43:07.603,,812,1997,-1004
12:43:07.613,,851,1997,-1206
12:43:07.623,,872,1997,-1378
12:43:07.633,,840,1997,-1481
12:43:07.643,,771,1997,-1526
12:43:07.653,,742,1997,-1568
12:43:07.663,,646,1997,-1612
12:43:07.673,,602,1997,-1534
12:43:07.683,,593,1997,-1410
12:43:07.693,,609,1997,-1224
12:43:07.703,,616,1990,-1037
12:43:07.713,,610,1905,-904
12:43:07.723,,621,1834,-845
12:43:07.733,,600,1781,-817
12:43:07.743,,580,1713,-768
12:43:07.753,,559,1620,-692
12:43:07.763,,532,1521,-627
12:43:07.773,,531,1421,-546
12:43:07.783,,514,1320,-502
12:43:07.793,,524,1118,-368
12:43:07.803,,551,1043,-281
12:43:07.813,,602,975,-209
12:43:07.823,,640,902,-149
12:43:07.833,,618,824,-96
12:43:07.843,,580,766,-93
12:43:07.853,,558,714,-110
12:43:07.863,,587,659,-106
12:43:07.873,,557,608,-98
12:43:07.883,,544,551,-79
12:43:07.893,,477,573,-94
12:43:07.903,,362,547,-223
12:43:07.913,,304,558,-451
12:43:07.923,,195,531,-462
12:43:07.933,,106,418,-392
12:43:07.943,,13,231,-204
12:43:07.953,,29,27,-43
12:43:07.963,,139,-44,-14
12:43:07.973,,161,-20,-84
12:43:07.983,,167,24,-275
12:43:07.993,,151,95,-434
12:43:08.003,,86,108,-475
12:43:08.013,,-2,52,-460
12:43:08.023,,-47,-20,-390
12:43:08.033,,-98,-105,-316
12:43:08.043,,-105,-246,-211
12:43:08.053,,-85,-259,-161
12:43:08.063,,-129,-278,-158
12:43:08.073,,-173,-337,-225
12:43:08.083,,-183,-255,-366
12:43:08.093,,-216,-128,-418
12:43:08.103,,-260,-94,-530
12:43:08.113,,-294,-119,-546
12:43:08.123,,-300,-204,-499
12:43:08.133,,-315,-287,-405
12:43:08.143,,-340,-339,-303
12:43:08.153,,-316,-420,-213
12:43:08.163,,-341,-473,-130
12:43:08.173,,-422,-400,-55
12:43:08.183,,-427,-376,-116
12:43:08.193,,-314,-380,-190
12:43:08.203,,-140,-327,-239
12:43:08.213,,-63,-253,-340
12:43:08.223,,-85,-200,-355
12:43:08.233,,-93,-171,-324
12:43:08.243,,-181,-175,-265
12:43:08.253,,-337,-204,-155
12:43:08.263,,-416,-244,-61
12:43:08.273,,-409,-254,-57
12:43:08.283,,-306,-191,-91
12:43:08.293,,-193,-49,-168
12:43:08.303,,-287,108,-252
12:43:08.313,,-432,149,-231
12:43:08.323,,-710,171,-142
12:43:08.333,,-994,67,61
12:43:08.343,,-1182,-125,227
12:43:08.353,,-1274,-272,339
12:43:08.363,,-1282,-303,305
12:43:08.373,,-1369,-182,197
12:43:08.383,,-1491,-70,35
12:43:08.393,,-1611,-16,-203
12:43:08.403,,-1735,83,-452
12:43:08.413,,-1867,177,-587
12:43:08.423,,-1962,229,-636
12:43:08.433,,-1998,55,-470
12:43:08.443,,-1998,-18,-318
12:43:08.453,,-1998,-72,-183
12:43:08.463,,-1998,-143,-64
12:43:08.473,,-1998,-96,-78
12:43:08.483,,-1998,53,-265
12:43:08.493,,-1998,173,-507
12:43:08.503,,-1998,315,-750
12:43:08.513,,-1998,403,-1006
12:43:08.523,,-1998,443,-1162
12:43:08.533,,-1998,471,-1194
12:43:08.543,,-1998,509,-1146
12:43:08.553,,-1998,492,-1052
12:43:08.563,,-1998,362,-706
12:43:08.573,,-1998,270,-436
12:43:08.716,,-1040,336,116
12:43:08.717,,-1040,336,116
12:43:08.718,,-1040,336,116
12:43:08.720,,-1040,336,116
12:43:08.721,,-943,337,114
12:43:08.722,,-943,337,114
12:43:08.724,,-943,337,114
12:43:08.725,,-943,337,114
12:43:08.726,,-943,337,114
12:43:08.728,,-943,337,114
12:43:08.729,,-943,337,114
12:43:08.731,,-837,349,75
12:43:08.732,,-837,349,75
12:43:08.733,,-837,349,75
12:43:08.735,,-837,349,75
12:43:08.736,,-837,349,75
12:43:08.743,,-768,330,47
12:43:08.753,,-686,278,92
12:43:08.763,,-622,235,150
12:43:08.773,,-579,203,182
12:43:08.783,,-509,152,221
12:43:08.793,,-425,119,226
12:43:08.803,,-399,122,196
12:43:08.813,,-367,168,101
12:43:08.823,,-297,192,98
12:43:08.833,,-274,197,70
12:43:08.843,,-224,252,-23
12:43:08.853,,-163,299,-139
12:43:08.863,,-119,309,-241
12:43:08.873,,-72,322,-270
12:43:08.883,,-29,303,-280
12:43:08.893,,7,262,-296
12:43:08.903,,5,246,-333
12:43:08.913,,-3,261,-266
12:43:08.923,,-37,240,-228
12:43:08.933,,-40,252,-240
12:43:08.943,,45,370,-260
12:43:08.953,,74,413,-316
12:43:08.963,,130,441,-337
12:43:08.973,,211,414,-267
12:43:08.983,,265,355,-187
12:43:08.993,,286,364,-112
12:43:09.003,,246,374,-51
12:43:09.013,,183,462,-88
12:43:09.023,,139,597,-217
12:43:09.033,,122,719,-361
12:43:09.043,,124,885,-514
12:43:09.053,,117,1020,-672
12:43:09.063,,139,1052,-747
12:43:09.073,,140,971,-662
12:43:09.083,,114,989,-667
12:43:09.093,,170,1031,-593
12:43:09.103,,179,1114,-609
12:43:09.113,,174,1193,-657
12:43:09.123,,159,1241,-761
12:43:09.133,,104,1317,-942
12:43:09.143,,136,1440,-893
12:43:09.153,,219,1588,-969
12:43:09.163,,196,1643,-1082
12:43:09.173,,194,1706,-1158
12:43:09.183,,168,1753,-1233
12:43:09.193,,118,1744,-1212
12:43:09.203,,-102,1719,-1106
12:43:09.213,,-24,1850,-1200
12:43:09.223,,139,1988,-1351
12:43:09.233,,317,1997,-1467
12:43:09.243,,468,1997,-1451
12:43:09.253,,535,1997,-1411
12:43:09.263,,537,1997,-1316
12:43:09.273,,526,1997,-1263
12:43:09.283,,452,1997,-1300
12:43:09.293,,432,1997,-1275
12:43:09.303,,408,1997,-1192
12:43:09.313,,393,1997,-1101
12:43:09.323,,409,1997,-1037
12:43:09.333,,302,1997,-1012
12:43:09.343,,215,1949,-932
12:43:09.353,,149,1784,-762
12:43:09.363,,131,1567,-496
12:43:09.373,,64,1398,-346
12:43:09.383,,54,1304,-341
12:43:09.393,,107,1259,-394
12:43:09.403,,155,1215,-417
12:43:09.413,,175,1150,-410
12:43:09.423,,149,1086,-406
12:43:09.433,,105,1011,-411
12:43:09.443,,51,909,-367
12:43:09.453,,-5,780,-290
12:43:09.463,,-150,664,-327
12:43:09.473,,-151,593,-310
12:43:09.483,,-185,502,-235
12:43:09.493,,-229,374,-145
12:43:09.503,,-274,252,-59
12:43:09.513,,-266,170,-79
12:43:09.523,,-252,154,-144
12:43:09.533,,-239,141,-233
12:43:09.543,,-224,104,-279
12:43:09.553,,-228,36,-216
12:43:09.563,,-255,-91,-79
12:43:09.573,,-259,-211,-50
12:43:09.583,,-217,-121,-148
12:43:09.593,,-140,-123,-151
12:43:09.603,,-84,-113,-109
12:43:09.613,,-51,-117,-59
12:43:09.623,,-73,-153,-20
12:43:09.633,,-61,-162,-12
12:43:09.643,,-99,-108,-68
12:43:09.653,,-116,-86,-115
12:43:09.663,,-158,-49,-92
12:43:09.673,,-217,-64,-35
12:43:09.683,,-229,-51,2
12:43:09.693,,-161,33,66
12:43:09.703,,-123,96,125
12:43:09.713,,-346,276,199
12:43:09.723,,-440,383,263
12:43:09.733,,-591,504,397
12:43:09.743,,-861,563,388
12:43:09.753,,-1220,661,249
12:43:09.763,,-1610,802,-122
12:43:09.773,,-1981,787,-459
12:43:09.783,,-1998,631,-649
12:43:09.793,,-1998,426,-697
12:43:09.803,,-1998,119,-487
12:43:09.813,,-1998,-86,-277
12:43:09.823,,-1998,-244,-212
12:43:09.833,,-1998,-337,-223
12:43:09.843,,-1998,-225,-206
12:43:09.853,,-1998,-171,-156
12:43:09.863,,-1998,-158,-83
12:43:09.873,,-1998,-156,-24
12:43:09.883,,-1998,-174,-72
12:43:09.893,,-1998,-204,-142
12:43:09.903,,-1998,-210,-223
12:43:09.913,,-1998,-165,-298
12:43:09.923,,-1998,-135,-354
12:43:09.933,,-1998,-167,-358
12:43:09.943,,-1998,-195,-353
12:43:09.953,,-1998,-160,-381
12:43:09.963,,-1998,-157,-399
12:43:09.973,,-1906,-211,-154
12:43:09.983,,-1786,-286,-10
12:43:09.993,,-1660,-346,105
12:43:10.003,,-1574,-383,227
12:43:10.013,,-1463,-399,254
12:43:10.023,,-1396,-373,232
12:43:10.033,,-1323,-342,182
12:43:10.043,,-1248,-272,98
12:43:10.185,,-544,131,-248
12:43:10.186,,-507,172,-222
12:43:10.188,,-507,172,-222
12:43:10.189,,-507,172,-222
12:43:10.191,,-507,172,-222
12:43:10.192,,-507,172,-222
12:43:10.193,,-507,172,-222
12:43:10.195,,-507,172,-222
12:43:10.196,,-444,196,-154
12:43:10.197,,-444,196,-154
12:43:10.199,,-444,196,-154
12:43:10.200,,-444,196,-154
12:43:10.201,,-444,196,-154
12:43:10.203,,-444,196,-154
12:43:10.204,,-444,196,-154
12:43:10.206,,-397,190,-59
12:43:10.213,,-397,190,-59
12:43:10.223,,-325,248,138
12:43:10.233,,-169,344,128
12:43:10.243,,-96,460,40
12:43:10.253,,-106,527,-86
12:43:10.263,,-117,605,-174
12:43:10.273,,-122,690,-294
12:43:10.283,,-143,746,-429
12:43:10.293,,-142,806,-504
12:43:10.303,,-145,816,-471
12:43:10.313,,-176,766,-448
12:43:10.323,,-171,757,-348
12:43:10.333,,-152,735,-195
12:43:10.343,,-191,790,-143
12:43:10.353,,-251,1132,-455
12:43:10.363,,-417,1296,-622
12:43:10.373,,-477,1323,-613
12:43:10.383,,-511,1327,-614
12:43:10.393,,-458,1373,-609
12:43:10.403,,-440,1391,-638
12:43:10.413,,-398,1382,-639
12:43:10.423,,-408,1412,-666
12:43:10.433,,-456,1505,-593
12:43:10.443,,-474,1587,-729
12:43:10.453,,-464,1653,-808
12:43:10.463,,-508,1711,-978
12:43:10.473,,-548,1845,-1051
12:43:10.483,,-673,1997,-1105
12:43:10.493,,-610,1997,-1280
12:43:10.503,,-409,1997,-1399
12:43:10.513,,-186,1997,-1399
12:43:10.523,,3,1997,-1286
12:43:10.533,,101,1997,-1135
12:43:10.543,,159,1997,-1039
12:43:10.553,,162,1997,-1046
12:43:10.563,,116,1997,-1082
12:43:10.573,,45,1997,-1025
12:43:10.583,,-24,1997,-871
12:43:10.593,,-111,1972,-793
12:43:10.603,,-149,1874,-780
12:43:10.613,,-174,1731,-819
12:43:10.623,,-130,1629,-734
12:43:10.633,,-28,1538,-643
12:43:10.643,,65,1532,-617
12:43:10.653,,134,1570,-643
12:43:10.663,,194,1661,-719
12:43:10.673,,197,1709,-754
12:43:10.683,,181,1664,-728
12:43:10.693,,170,1614,-708
12:43:10.703,,160,1533,-657
12:43:10.713,,179,1415,-580
12:43:10.723,,230,1332,-501
12:43:10.733,,274,1249,-435
12:43:10.743,,319,1219,-416
12:43:10.753,,247,1247,-456
12:43:10.763,,195,1197,-422
12:43:10.773,,104,1079,-283
12:43:10.783,,-10,932,-177
12:43:10.793,,-106,810,-127
12:43:10.803,,-169,720,-120
12:43:10.813,,-197,670,-196
12:43:10.823,,-220,668,-340
12:43:10.833,,-278,615,-363
12:43:10.843,,-324,487,-275
12:43:10.853,,-337,380,-237
12:43:10.863,,-377,309,-279
12:43:10.873,,-460,169,-309
12:43:10.883,,-466,113,-278
12:43:10.893,,-471,45,-244
12:43:10.903,,-506,2,-248
12:43:10.913,,-538,-35,-244
12:43:10.923,,-591,-64,-263
12:43:10.933,,-689,-68,-307
12:43:10.943,,-780,-87,-385
12:43:10.953,,-927,-88,-527
12:43:10.963,,-1050,-89,-693
12:43:10.973,,-1153,-86,-815
12:43:10.983,,-1225,-110,-813
12:43:10.993,,-1243,-155,-598
12:43:11.003,,-1161,-235,-545
12:43:11.013,,-1122,-252,-606
12:43:11.023,,-1107,-219,-724
12:43:11.033,,-1128,-172,-827
12:43:11.043,,-1096,-130,-875
12:43:11.053,,-1049,-35,-797
12:43:11.063,,-1029,0,-632
12:43:11.073,,-990,38,-427
12:43:11.083,,-908,71,-307
12:43:11.093,,-797,81,-294
12:43:11.103,,-756,154,-145
12:43:11.113,,-908,319,142
12:43:11.123,,-1098,269,763
12:43:11.133,,-923,301,869
12:43:11.143,,-638,362,786
12:43:11.153,,-330,588,681
12:43:11.163,,-135,658,713
12:43:11.173,,-104,633,976
12:43:11.183,,-255,527,1249
12:43:11.193,,-566,302,1639
12:43:11.203,,-692,119,1900
12:43:11.213,,-633,95,1996
12:43:11.223,,-446,-94,1998
12:43:11.233,,-296,-292,1998
12:43:11.243,,-124,-410,1998
12:43:11.253,,-81,-728,1998
12:43:11.263,,-234,-638,1987
12:43:11.273,,-440,-494,1840
12:43:11.283,,-609,-340,1689
12:43:11.293,,-741,-105,1592
12:43:11.303,,-842,50,1571
12:43:11.313,,-843,23,1636
12:43:11.323,,-704,-34,1796
12:43:11.333,,-519,-50,1989
12:43:11.343,,-415,-43,1998
12:43:11.353,,-385,24,1998
12:43:11.363,,-495,34,1998
12:43:11.373,,-631,-56,1998
12:43:11.383,,-829,-249,1998
12:43:11.393,,-833,-377,1998
12:43:11.403,,-935,-477,1998
12:43:11.413,,-942,-626,1998
12:43:11.423,,-960,-585,1998
12:43:11.433,,-1010,-305,1998
12:43:11.443,,-1146,-59,1998
12:43:11.453,,-1227,-34,1998
12:43:11.463,,-1231,-22,1998
12:43:11.473,,-1199,-48,1998
12:43:11.483,,-1125,-96,1998
12:43:11.493,,-1048,-180,1998
12:43:11.635,,-666,247,648
12:43:11.636,,-666,247,648
12:43:11.638,,-666,247,648
12:43:11.639,,-666,247,648
12:43:11.641,,-666,247,648
12:43:11.642,,-666,247,648
12:43:11.643,,-666,222,575
12:43:11.645,,-666,222,575
12:43:11.646,,-666,222,575
12:43:11.647,,-666,222,575
12:43:11.649,,-666,222,575
12:43:11.650,,-666,222,575
12:43:11.651,,-666,222,575
12:43:11.653,,-593,107,489
12:43:11.654,,-593,107,489
12:43:11.656,,-593,107,489
12:43:11.663,,-497,-34,493
12:43:11.673,,-229,-53,544
12:43:11.683,,-52,25,540
12:43:11.693,,-31,54,513
12:43:11.703,,-160,59,543
12:43:11.713,,-220,225,587
12:43:11.723,,-276,543,559
12:43:11.733,,-317,631,406
12:43:11.743,,-331,514,197
12:43:11.753,,-392,494,48
12:43:11.763,,-550,541,-230
12:43:11.773,,-610,495,-349
12:43:11.783,,-472,551,-337
12:43:11.793,,-397,551,-457
12:43:11.803,,-371,574,-470
12:43:11.813,,-380,558,-387
12:43:11.823,,-367,543,-325
12:43:11.833,,-374,623,-426
12:43:11.843,,-307,733,-546
12:43:11.853,,-256,781,-595
12:43:11.863,,-302,718,-658
12:43:11.873,,-397,600,-651
12:43:11.883,,-610,468,-596
12:43:11.893,,-855,113,-486
12:43:11.903,,-790,165,-553
12:43:11.913,,-751,287,-645
12:43:11.923,,-715,295,-725
12:43:11.933,,-780,230,-849
12:43:11.943,,-1135,205,-1011
12:43:11.953,,-1530,180,-1323
12:43:11.963,,-1599,202,-1639
12:43:11.973,,-1610,422,-1610
12:43:11.983,,-1456,424,-1827
12:43:11.993,,-1320,311,-1504
12:43:12.003,,-1311,283,-1439
12:43:12.013,,-1332,379,-1574
12:43:12.023,,-1325,300,-1537
12:43:12.033,,-1356,159,-1429
12:43:12.043,,-1416,163,-1453
12:43:12.053,,-1322,246,-1515
12:43:12.063,,-1180,264,-1542
12:43:12.073,,-1125,293,-1604
12:43:12.083,,-1100,285,-1654
12:43:12.093,,-1042,267,-1503
12:43:12.103,,-848,175,-1151
12:43:12.113,,-677,85,-856
12:43:12.123,,-601,-49,-639
12:43:12.133,,-611,-105,-589
12:43:12.143,,-668,-129,-623
12:43:12.153,,-962,-160,-796
12:43:12.163,,-1030,-143,-855
12:43:12.173,,-1009,-106,-938
12:43:12.183,,-954,17,-997
12:43:12.193,,-841,86,-926
12:43:12.203,,-713,104,-787
12:43:12.213,,-633,112,-662
12:43:12.223,,-616,162,-578
12:43:12.233,,-654,171,-528
12:43:12.243,,-680,133,-492
12:43:12.253,,-701,38,-462
12:43:12.263,,-734,15,-407
12:43:12.273,,-745,-8,-412
12:43:12.283,,-671,0,-257
12:43:12.293,,-610,14,-210
12:43:12.303,,-540,94,-180
12:43:12.313,,-438,199,-109
12:43:12.323,,-346,211,-57
12:43:12.333,,-286,236,22
12:43:12.343,,-327,237,119
12:43:12.353,,-358,119,267
12:43:12.363,,-380,92,384
12:43:12.373,,-405,136,432
12:43:12.383,,-480,176,422
12:43:12.393,,-574,219,560
12:43:12.403,,-500,244,950
12:43:12.413,,115,279,1230
12:43:12.423,,434,155,1412
12:43:12.433,,557,57,1417
12:43:12.443,,434,203,1189
12:43:12.453,,179,361,912
12:43:12.463,,-116,462,733
12:43:12.473,,-486,513,796
12:43:12.483,,-661,377,1131
12:43:12.493,,-520,353,1535
12:43:12.503,,-113,344,1751
12:43:12.513,,125,464,1884
12:43:12.523,,114,510,1994
12:43:12.533,,18,306,1998
12:43:12.543,,-172,452,1879
12:43:12.553,,-268,527,1745
12:43:12.563,,-369,573,1857
12:43:12.573,,-435,481,1976
12:43:12.583,,-346,475,1998
12:43:12.593,,-213,514,1998
12:43:12.603,,-210,501,1998
12:43:12.613,,-296,418,1998
12:43:12.623,,-357,309,1998
12:43:12.633,,-318,233,1998
12:43:12.643,,-227,308,1998
12:43:12.653,,-342,374,1998
12:43:12.663,,-584,373,1998
12:43:12.673,,-751,264,1998
12:43:12.683,,-511,107,1998
12:43:12.693,,-281,-19,1998
12:43:12.703,,-62,-83,1998
12:43:12.713,,33,70,1998
12:43:12.723,,-7,287,1998
12:43:12.733,,-116,631,1998
12:43:12.743,,-286,747,1998
12:43:12.753,,-434,661,1998
12:43:12.763,,-352,386,1998
12:43:12.773,,-230,209,1998
12:43:12.783,,-245,155,1998
12:43:12.793,,-573,310,1998
12:43:12.803,,-629,347,1998
12:43:12.813,,-582,357,1998
12:43:12.823,,-421,487,1998
12:43:12.833,,-304,639,1869
12:43:12.843,,-338,696,1650
12:43:12.853,,-435,619,1457
12:43:12.863,,-440,493,1375
12:43:12.873,,-414,400,1340
12:43:12.883,,-458,333,1301
12:43:12.893,,-569,190,1282
12:43:12.903,,-650,59,1316
12:43:12.913,,-676,91,1288
12:43:12.923,,-610,459,1046
12:43:12.933,,-611,356,827
12:43:12.943,,-690,333,613
12:43:12.953,,-758,422,361
12:43:12.963,,-708,416,227
12:43:12.973,,-611,320,266
12:43:13.115,,-1097,702,-394
12:43:13.116,,-1097,702,-394
12:43:13.118,,-1234,736,-761
12:43:13.119,,-1234,736,-761
12:43:13.121,,-1234,736,-761
12:43:13.122,,-1234,736,-761
12:43:13.123,,-1234,736,-761
12:43:13.125,,-1234,736,-761
12:43:13.126,,-1234,736,-761
12:43:13.127,,-1344,688,-1035
12:43:13.129,,-1344,688,-1035
12:43:13.130,,-1344,688,-1035
12:43:13.131,,-1344,688,-1035
12:43:13.133,,-1344,688,-1035
12:43:13.134,,-1344,688,-1035
12:43:13.136,,-1344,688,-1035
12:43:13.143,,-1367,583,-1037
12:43:13.153,,-1218,497,-782
12:43:13.163,,-994,515,-621
12:43:13.173,,-910,595,-548
12:43:13.183,,-804,486,-589
12:43:13.193,,-839,513,-738
12:43:13.203,,-867,568,-855
12:43:13.213,,-821,526,-868
12:43:13.223,,-843,510,-935
12:43:13.233,,-806,416,-945
12:43:13.243,,-708,356,-982
12:43:13.253,,-655,276,-954
12:43:13.263,,-570,189,-931
12:43:13.273,,-417,184,-940
12:43:13.283,,-346,231,-1041
12:43:13.293,,-279,252,-1196
12:43:13.303,,-254,310,-1477
12:43:13.313,,-169,477,-1570
12:43:13.323,,-113,631,-1719
12:43:13.333,,-126,843,-1935
12:43:13.343,,-156,951,-1976
12:43:13.353,,-138,947,-1916
12:43:13.363,,-255,874,-1847
12:43:13.373,,-465,922,-1940
12:43:13.383,,-710,1099,-1997
12:43:13.393,,-906,1211,-1997
12:43:13.403,,-1016,1271,-1997
12:43:13.413,,-1085,1253,-1997
12:43:13.423,,-1089,1193,-1997
12:43:13.433,,-1050,895,-1913
12:43:13.443,,-1013,814,-1615
12:43:13.453,,-1060,776,-1454
12:43:13.463,,-1103,756,-1397
12:43:13.473,,-1179,763,-1380
12:43:13.483,,-1261,758,-1375
12:43:13.493,,-1279,730,-1398
12:43:13.503,,-1260,737,-1364
12:43:13.513,,-1227,765,-1277
12:43:13.523,,-1176,708,-1121
12:43:13.533,,-1112,656,-932
12:43:13.543,,-1061,625,-738
12:43:13.553,,-1025,554,-549
12:43:13.563,,-969,449,-338
12:43:13.573,,-952,426,-258
12:43:13.583,,-942,487,-153
12:43:13.593,,-932,498,-92
12:43:13.603,,-907,412,-7
12:43:13.613,,-841,426,123
12:43:13.623,,-773,411,268
12:43:13.633,,-746,366,399
12:43:13.643,,-748,325,444
12:43:13.653,,-727,302,449
12:43:13.663,,-717,362,438
12:43:13.673,,-684,361,422
12:43:13.683,,-626,392,438
12:43:13.693,,-404,486,611
12:43:13.703,,-301,438,716
12:43:13.713,,-254,407,692
12:43:13.723,,-173,397,679
12:43:13.733,,-76,413,683
12:43:13.743,,-69,455,764
12:43:13.753,,-43,375,1031
12:43:13.763,,-14,148,1246
12:43:13.773,,-67,66,1243
12:43:13.783,,-195,144,1120
12:43:13.793,,-235,251,953
12:43:13.803,,-286,380,817
12:43:13.813,,-296,547,837
12:43:13.823,,-129,445,1489
12:43:13.833,,-83,188,1844
12:43:13.843,,7,64,1920
12:43:13.853,,81,37,1868
12:43:13.863,,47,149,1763
12:43:13.873,,-126,303,1551
12:43:13.883,,-365,433,1414
12:43:13.893,,-506,491,1403
12:43:13.903,,-625,412,1545
12:43:13.913,,-581,354,1786
12:43:13.923,,-335,297,1969
12:43:13.933,,-206,221,1998
12:43:13.943,,-178,287,1998
12:43:13.953,,-409,393,1998
12:43:13.963,,-532,368,1998
12:43:13.973,,-581,325,1998
12:43:13.983,,-542,255,1998
12:43:13.993,,-447,177,1998
12:43:14.003,,-408,124,1998
12:43:14.013,,-334,63,1998
12:43:14.023,,-245,33,1998
12:43:14.033,,-131,24,1998
12:43:14.043,,-20,96,1998
12:43:14.053,,19,220,1998
12:43:14.063,,-54,81,1998
12:43:14.073,,-125,88,1998
12:43:14.083,,-169,65,1998
12:43:14.093,,-259,19,1998
12:43:14.103,,-348,-29,1998
12:43:14.113,,-392,-89,1998
12:43:14.123,,-373,-217,1998
12:43:14.133,,-330,-134,1998
12:43:14.143,,-308,180,1998
12:43:14.153,,-404,215,1893
12:43:14.163,,-502,280,1756
12:43:14.173,,-552,162,1648
12:43:14.183,,-500,39,1588
12:43:14.193,,-441,6,1498
12:43:14.203,,-543,153,1205
12:43:14.213,,-587,95,1082
12:43:14.223,,-587,-5,1070
12:43:14.233,,-498,-115,1100
12:43:14.243,,-309,-75,1116
12:43:14.253,,-190,121,1167
12:43:14.263,,-253,127,993
12:43:14.273,,-389,-21,905
12:43:14.283,,-461,-16,831
12:43:14.293,,-470,-17,727
12:43:14.303,,-512,-25,706
12:43:14.313,,-521,-108,724
12:43:14.323,,-487,-124,614
12:43:14.333,,-402,-62,421
12:43:14.343,,-274,-59,389
12:43:14.353,,-226,-78,271
12:43:14.363,,-162,-83,302
12:43:14.373,,-31,-105,348
12:43:14.383,,25,-86,394
12:43:14.393,,10,-56,415
12:43:14.403,,-17,-100,395
12:43:14.413,,-134,-87,472
12:43:14.423,,-303,-164,578
12:43:14.433,,-337,-173,545
12:43:14.578,,-555,614,-1785
12:43:14.579,,-555,614,-1785
12:43:14.580,,-555,614,-1785
12:43:14.582,,-555,614,-1785
12:43:14.583,,-454,536,-1783
12:43:14.585,,-454,536,-1783
12:43:14.586,,-454,536,-1783
12:43:14.587,,-454,536,-1783
12:43:14.589,,-454,536,-1783
12:43:14.590,,-454,536,-1783
12:43:14.591,,-454,536,-1783
12:43:14.593,,-460,542,-1739
12:43:14.594,,-460,542,-1739
12:43:14.595,,-460,542,-1739
12:43:14.597,,-460,542,-1739
12:43:14.598,,-460,542,-1739
12:43:14.603,,-507,501,-1618
12:43:14.613,,-519,416,-1504
12:43:14.623,,-513,352,-1466
12:43:14.633,,-561,337,-1536
12:43:14.643,,-606,321,-1641
12:43:14.653,,-660,248,-1748
12:43:14.663,,-719,129,-1824
12:43:14.673,,-773,67,-1855
12:43:14.683,,-744,-53,-1764
12:43:14.693,,-653,-222,-1543
12:43:14.703,,-586,-393,-1454
12:43:14.713,,-493,-329,-1685
12:43:14.723,,-431,-333,-1765
12:43:14.733,,-416,-298,-1852
12:43:14.743,,-409,-303,-1887
12:43:14.753,,-356,-236,-1953
12:43:14.763,,-346,-206,-1937
12:43:14.773,,-262,-189,-1950
12:43:14.783,,-221,-165,-1861
12:43:14.793,,-129,-202,-1555
12:43:14.803,,11,-239,-1274
12:43:14.813,,39,-234,-1174
12:43:14.823,,-28,-231,-1248
12:43:14.833,,-156,-213,-1356
12:43:14.843,,-297,-265,-1509
12:43:14.853,,-466,-268,-1464
12:43:14.863,,-426,-256,-1455
12:43:14.873,,-364,-239,-1377
12:43:14.883,,-342,-179,-1279
12:43:14.893,,-375,-195,-1097
12:43:14.903,,-393,-233,-889
12:43:14.913,,-393,-236,-771
12:43:14.923,,-430,-203,-814
12:43:14.933,,-441,-126,-888
12:43:14.943,,-436,-31,-948
12:43:14.953,,-395,72,-1002
12:43:14.963,,-341,170,-1021
12:43:14.973,,-231,216,-843
12:43:14.983,,-203,264,-792
12:43:14.993,,-212,316,-741
12:43:15.003,,-178,302,-629
12:43:15.013,,-99,258,-455
12:43:15.023,,-65,286,-385
12:43:15.033,,-57,284,-435
12:43:15.043,,-52,374,-560
12:43:15.053,,-48,463,-675
12:43:15.063,,-31,470,-657
12:43:15.073,,-43,467,-564
12:43:15.083,,-17,468,-448
12:43:15.093,,36,448,-384
12:43:15.103,,123,400,-203
12:43:15.113,,211,337,-23
12:43:15.123,,348,348,10
12:43:15.133,,400,397,-51
12:43:15.143,,395,357,-48
12:43:15.153,,397,336,4
12:43:15.163,,355,318,14
12:43:15.173,,297,308,52
12:43:15.183,,334,296,90
12:43:15.193,,440,351,48
12:43:15.203,,490,349,21
12:43:15.213,,473,305,74
12:43:15.223,,416,251,144
12:43:15.233,,288,352,3
12:43:15.243,,319,483,-92
12:43:15.253,,433,546,-25
12:43:15.263,,587,530,149
12:43:15.273,,679,510,297
12:43:15.283,,719,454,409
12:43:15.293,,660,398,482
12:43:15.303,,590,311,542
12:43:15.313,,586,359,562
12:43:15.323,,609,394,520
12:43:15.333,,599,515,466
12:43:15.343,,536,599,469
12:43:15.353,,466,565,552
12:43:15.363,,550,536,866
12:43:15.373,,687,582,927
12:43:15.383,,842,640,981
12:43:15.393,,924,729,1012
12:43:15.403,,986,831,999
12:43:15.413,,1135,953,988
12:43:15.423,,1209,981,1025
12:43:15.433,,1353,988,1157
12:43:15.443,,1531,940,1385
12:43:15.453,,1669,848,1597
12:43:15.463,,1747,781,1688
12:43:15.473,,1741,841,1622
12:43:15.483,,1709,922,1318
12:43:15.493,,1612,1163,1146
12:43:15.503,,1677,1233,1069
12:43:15.513,,1784,1215,1161
12:43:15.523,,1816,1112,1336
12:43:15.533,,1815,1015,1480
12:43:15.543,,1809,957,1565
12:43:15.553,,1801,929,1612
12:43:15.563,,1862,944,1628
12:43:15.573,,1930,1000,1583
12:43:15.583,,1972,1084,1488
12:43:15.593,,1977,1151,1404
12:43:15.603,,1872,1100,1333
12:43:15.613,,1723,988,1203
12:43:15.623,,1448,914,1174
12:43:15.633,,1410,876,1238
12:43:15.643,,1379,812,1315
12:43:15.653,,1290,786,1298
12:43:15.663,,1250,764,1242
12:43:15.673,,1210,764,1172
12:43:15.683,,1166,780,1094
12:43:15.693,,1126,814,999
12:43:15.703,,1057,766,902
12:43:15.713,,978,719,882
12:43:15.723,,927,703,860
12:43:15.733,,888,703,854
12:43:15.743,,791,564,861
12:43:15.753,,817,515,869
12:43:15.763,,751,437,984
12:43:15.773,,740,325,1082
12:43:15.783,,774,234,1124
12:43:15.793,,689,226,1050
12:43:15.803,,480,321,891
12:43:15.813,,335,334,713
12:43:15.823,,307,367,581
12:43:15.833,,350,381,484
12:43:15.843,,299,378,475
12:43:15.853,,254,297,537
12:43:15.863,,346,197,638
12:43:15.873,,444,188,708
12:43:15.883,,446,282,600
12:43:15.893,,294,334,481
12:43:15.903,,30,388,362
12:43:15.913,,-255,326,250
12:43:16.062,,-839,-235,-482
12:43:16.064,,-839,-235,-482
12:43:16.065,,-839,-235,-482
12:43:16.066,,-839,-235,-482
12:43:16.068,,-822,-234,-473
12:43:16.069,,-822,-234,-473
12:43:16.070,,-822,-234,-473
12:43:16.072,,-822,-234,-473
12:43:16.073,,-822,-234,-473
12:43:16.075,,-822,-234,-473
12:43:16.076,,-822,-234,-473
12:43:16.077,,-854,-299,-470
12:43:16.079,,-854,-299,-470
12:43:16.080,,-854,-299,-470
12:43:16.081,,-854,-299,-470
12:43:16.083,,-854,-299,-470
12:43:16.084,,-854,-299,-470
12:43:16.092,,-881,-430,-401
12:43:16.102,,-916,-499,-357
12:43:16.112,,-850,-641,-304
12:43:16.122,,-854,-730,-253
12:43:16.132,,-836,-732,-414
12:43:16.142,,-810,-713,-546
12:43:16.152,,-845,-689,-777
12:43:16.162,,-824,-679,-974
12:43:16.172,,-713,-738,-1084
12:43:16.182,,-546,-834,-1184
12:43:16.192,,-401,-932,-1349
12:43:16.202,,-233,-1053,-1546
12:43:16.212,,-58,-1105,-1821
12:43:16.222,,99,-1058,-1995
12:43:16.232,,169,-858,-1997
12:43:16.242,,241,-586,-1997
12:43:16.252,,118,-170,-1997
12:43:16.262,,-253,133,-1997
12:43:16.272,,-317,-84,-1997
12:43:16.282,,-322,-388,-1997
12:43:16.292,,-302,-591,-1822
12:43:16.302,,-203,-721,-1401
12:43:16.312,,-64,-791,-1150
12:43:16.322,,44,-812,-1024
12:43:16.332,,59,-781,-1061
12:43:16.342,,-66,-658,-1204
12:43:16.352,,-243,-538,-1315
12:43:16.362,,-427,-422,-1393
12:43:16.372,,-524,-280,-1434
12:43:16.382,,-618,-199,-1188
12:43:16.392,,-626,-267,-945
12:43:16.402,,-563,-302,-712
12:43:16.412,,-459,-325,-535
12:43:16.422,,-348,-279,-441
12:43:16.432,,-269,-241,-386
12:43:16.442,,-233,-190,-322
12:43:16.452,,-244,-144,-313
12:43:16.462,,-283,-51,-306
12:43:16.472,,-296,-60,-367
12:43:16.482,,-287,34,-362
12:43:16.492,,-282,101,-304
12:43:16.502,,-250,118,-238
12:43:16.512,,23,134,0
12:43:16.522,,158,120,62
12:43:16.532,,243,165,22
12:43:16.542,,258,246,-27
12:43:16.552,,235,266,-50
12:43:16.562,,245,279,-38
12:43:16.572,,231,268,20
12:43:16.582,,206,267,135
12:43:16.592,,205,256,269
12:43:16.602,,230,224,399
12:43:16.612,,373,198,481
12:43:16.622,,511,256,496
12:43:16.632,,602,284,513
12:43:16.642,,535,267,546
12:43:16.652,,352,231,598
12:43:16.662,,212,137,781
12:43:16.672,,167,19,944
12:43:16.682,,145,-89,1073
12:43:16.692,,117,-195,1150
12:43:16.702,,101,-253,1184
12:43:16.712,,111,-246,1204
12:43:16.722,,84,-220,1166
12:43:16.732,,40,-181,1077
12:43:16.742,,33,-122,1000
12:43:16.752,,76,-116,984
12:43:16.762,,183,-117,1024
12:43:16.772,,202,-138,1130
12:43:16.782,,191,-141,1222
12:43:16.792,,136,-127,1306
12:43:16.802,,120,-51,1373
12:43:16.812,,113,18,1411
12:43:16.822,,189,56,1564
12:43:16.832,,344,-6,1820
12:43:16.842,,495,-122,1997
12:43:16.852,,658,-300,1998
12:43:16.862,,806,-425,1998
12:43:16.872,,859,-477,1998
12:43:16.882,,756,-280,1998
12:43:16.892,,517,-18,1998
12:43:16.902,,412,-11,1998
12:43:16.912,,551,-116,1998
12:43:16.922,,668,-311,1998
12:43:16.932,,767,-488,1998
12:43:16.942,,781,-573,1998
12:43:16.952,,654,-547,1998
12:43:16.962,,565,-423,1998
12:43:16.972,,480,-199,1998
12:43:16.982,,391,-31,1998
12:43:16.992,,317,-96,1998
12:43:17.002,,315,-98,1972
12:43:17.012,,357,-139,1887
12:43:17.022,,303,-187,1846
12:43:17.032,,284,-386,1909
12:43:17.042,,301,-440,1968
12:43:17.052,,402,-271,1998
12:43:17.062,,400,-57,1945
12:43:17.072,,254,78,1702
12:43:17.082,,152,229,1420
12:43:17.092,,50,239,1154
12:43:17.102,,26,256,934
12:43:17.112,,35,208,809
12:43:17.122,,58,100,803
12:43:17.132,,151,21,802
12:43:17.142,,174,-35,913
12:43:17.152,,184,-175,1252
12:43:17.162,,226,138,1060
12:43:17.172,,115,483,687
12:43:17.182,,65,656,271
12:43:17.192,,31,664,-61
12:43:17.202,,24,568,-205
12:43:17.212,,96,444,-227
12:43:17.222,,227,361,-178
12:43:17.232,,350,308,-88
12:43:17.242,,495,372,-107
12:43:17.252,,508,523,-266
12:43:17.262,,483,619,-399
12:43:17.272,,473,695,-528
12:43:17.282,,188,788,-919
12:43:17.292,,176,757,-1028
12:43:17.302,,228,746,-1093
12:43:17.312,,323,768,-1072
12:43:17.322,,355,714,-1039
12:43:17.332,,213,629,-1016
12:43:17.342,,56,564,-1084
12:43:17.352,,-95,587,-1247
12:43:17.362,,-233,625,-1376
12:43:17.372,,-284,594,-1410
12:43:17.382,,-343,549,-1388
12:43:17.526,,-1998,-637,-556
12:43:17.527,,-1998,-637,-556
12:43:17.529,,-1998,-637,-556
12:43:17.530,,-1998,-637,-556
12:43:17.531,,-1998,-637,-556
12:43:17.533,,-1998,-628,-659
12:43:17.534,,-1998,-628,-659
12:43:17.535,,-1998,-628,-659
12:43:17.537,,-1998,-628,-659
12:43:17.538,,-1998,-628,-659
12:43:17.540,,-1998,-628,-659
12:43:17.541,,-1998,-628,-659
12:43:17.542,,-1998,-640,-772
12:43:17.544,,-1998,-640,-772
12:43:17.545,,-1998,-640,-772
12:43:17.546,,-1998,-640,-772
12:43:17.552,,-1998,-676,-806
12:43:17.562,,-1998,-771,-755
12:43:17.572,,-1998,-781,-738
12:43:17.582,,-1998,-720,-765
12:43:17.592,,-1998,-677,-704
12:43:17.602,,-1998,-604,-695
12:43:17.612,,-1986,-536,-682
12:43:17.622,,-1811,-483,-650
12:43:17.632,,-1601,-425,-635
12:43:17.642,,-1411,-350,-616
12:43:17.652,,-1265,-277,-607
12:43:17.662,,-1145,-253,-638
12:43:17.672,,-931,-160,-607
12:43:17.682,,-824,-131,-538
12:43:17.692,,-717,-133,-466
12:43:17.702,,-598,-130,-415
12:43:17.712,,-475,-96,-331
12:43:17.722,,-426,-57,-327
12:43:17.732,,-356,9,-297
12:43:17.742,,-331,60,-319
12:43:17.752,,-255,95,-243
12:43:17.762,,-170,139,-142
12:43:17.772,,-144,143,-49
12:43:17.782,,-128,134,-7
12:43:17.792,,-116,101,75
12:43:17.802,,-170,186,60
12:43:17.812,,-208,228,-37
12:43:17.822,,-183,323,-127
12:43:17.832,,-134,419,-173
12:43:17.842,,-73,546,-194
12:43:17.852,,5,642,-141
12:43:17.862,,118,692,-52
12:43:17.872,,262,734,11
12:43:17.882,,409,770,97
12:43:17.892,,509,792,140
12:43:17.902,,530,827,121
12:43:17.912,,534,867,41
12:43:17.922,,570,1155,-305
12:43:17.932,,761,1203,-410
12:43:17.942,,912,1299,-454
12:43:17.952,,1088,1382,-495
12:43:17.962,,1249,1444,-488
12:43:17.972,,1406,1504,-497
12:43:17.982,,1550,1568,-564
12:43:17.992,,1687,1650,-704
12:43:18.002,,1771,1740,-948
12:43:18.012,,1817,1747,-1026
12:43:18.022,,1770,1821,-1366
12:43:18.032,,1717,1878,-1539
12:43:18.042,,1703,1896,-1666
12:43:18.052,,1753,1941,-1788
12:43:18.062,,1885,1920,-1662
12:43:18.072,,1987,1814,-1402
12:43:18.082,,1997,1697,-1157
12:43:18.092,,1977,1623,-979
12:43:18.102,,1876,1562,-900
12:43:18.112,,1712,1518,-839
12:43:18.122,,1546,1469,-777
12:43:18.132,,1365,1439,-760
12:43:18.142,,1218,1410,-724
12:43:18.152,,1120,1358,-623
12:43:18.162,,1041,1308,-511
12:43:18.172,,1007,1289,-439
12:43:18.182,,1015,1180,-228
12:43:18.192,,983,1115,-98
12:43:18.202,,881,1021,22
12:43:18.212,,725,884,159
12:43:18.222,,543,759,195
12:43:18.232,,385,706,72
12:43:18.242,,256,726,-97
12:43:18.252,,143,674,-215
12:43:18.262,,54,640,-288
12:43:18.272,,39,609,-314
12:43:18.282,,67,546,-263
12:43:18.292,,109,477,-206
12:43:18.302,,140,422,-220
12:43:18.312,,139,379,-290
12:43:18.322,,102,359,-233
12:43:18.332,,44,280,-129
12:43:18.342,,-38,198,-8
12:43:18.352,,-83,135,28
12:43:18.362,,-103,141,-75
12:43:18.372,,-139,207,-238
12:43:18.382,,-156,246,-396
12:43:18.392,,-198,279,-467
12:43:18.402,,-393,335,-451
12:43:18.412,,-682,292,-389
12:43:18.422,,-931,150,-219
12:43:18.432,,-1103,36,97
12:43:18.442,,-1285,-5,124
12:43:18.452,,-1493,-26,187
12:43:18.462,,-1785,-101,292
12:43:18.472,,-1998,-140,294
12:43:18.482,,-1998,-187,163
12:43:18.492,,-1998,-323,26
12:43:18.502,,-1998,-557,21
12:43:18.512,,-1998,-864,158
12:43:18.522,,-1998,-1058,343
12:43:18.532,,-1998,-1083,360
12:43:18.542,,-1998,-980,350
12:43:18.552,,-1998,-886,326
12:43:18.562,,-1998,-765,168
12:43:18.572,,-1994,-698,109
12:43:18.582,,-1879,-686,54
12:43:18.592,,-1739,-652,-6
12:43:18.602,,-1601,-597,-65
12:43:18.612,,-1457,-533,-136
12:43:18.622,,-1306,-467,-208
12:43:18.632,,-1184,-404,-238
12:43:18.642,,-1105,-355,-240
12:43:18.652,,-1032,-304,-257
12:43:18.662,,-941,-238,-295
12:43:18.672,,-807,-102,-285
12:43:18.682,,-683,1,-272
12:43:18.692,,-554,51,-151
12:43:18.702,,-392,82,-106
12:43:18.712,,-332,86,-61
12:43:18.722,,-291,85,-6
12:43:18.732,,-295,107,34
12:43:18.742,,-284,190,34
12:43:18.752,,-232,315,-52
12:43:18.762,,-132,449,-145
12:43:18.772,,-54,612,-208
12:43:18.782,,33,704,-248
12:43:18.792,,138,730,-210
12:43:18.802,,246,752,-103
12:43:18.812,,337,744,15
12:43:18.822,,393,798,-23
12:43:18.832,,426,833,-12
12:43:18.842,,434,920,-75
12:43:18.986,,1124,1997,-1997
12:43:18.987,,1124,1997,-1997
12:43:18.989,,1124,1997,-1997
12:43:18.990,,1094,1997,-1991
12:43:18.991,,1094,1997,-1991
12:43:18.993,,1094,1997,-1991
12:43:18.994,,1094,1997,-1991
12:43:18.995,,1094,1997,-1991
12:43:18.997,,1094,1997,-1991
12:43:18.998,,1094,1997,-1898
12:43:18.999,,1154,1997,-1898
12:43:19.001,,1154,1997,-1898
12:43:19.002,,1154,1997,-1898
12:43:19.004,,1154,1997,-1898
12:43:19.005,,1154,1997,-1898
12:43:19.006,,1154,1997,-1898
12:43:19.012,,1221,1997,-1788
12:43:19.022,,1297,1995,-1654
12:43:19.032,,1341,1946,-1477
12:43:19.042,,1337,1851,-1243
12:43:19.052,,1279,1768,-1047
12:43:19.062,,1231,1705,-917
12:43:19.072,,1175,1661,-842
12:43:19.082,,861,1456,-697
12:43:19.092,,696,1314,-569
12:43:19.102,,589,1225,-472
12:43:19.112,,523,1161,-400
12:43:19.122,,491,1085,-305
12:43:19.132,,513,1002,-188
12:43:19.142,,501,984,-155
12:43:19.152,,449,949,-184
12:43:19.162,,411,903,-221
12:43:19.172,,340,858,-226
12:43:19.182,,281,794,-229
12:43:19.192,,250,774,-268
12:43:19.202,,164,704,-101
12:43:19.212,,46,525,-40
12:43:19.222,,-38,539,-78
12:43:19.232,,-155,538,-163
12:43:19.242,,-254,503,-245
12:43:19.252,,-324,481,-320
12:43:19.262,,-384,465,-364
12:43:19.272,,-438,470,-371
12:43:19.282,,-525,380,-349
12:43:19.292,,-641,323,-254
12:43:19.302,,-674,276,-212
12:43:19.312,,-692,292,-288
12:43:19.322,,-745,318,-383
12:43:19.332,,-799,282,-431
12:43:19.342,,-1002,165,-415
12:43:19.352,,-1110,131,-345
12:43:19.362,,-1245,97,-371
12:43:19.372,,-1345,51,-363
12:43:19.382,,-1432,49,-339
12:43:19.392,,-1600,79,-346
12:43:19.402,,-1817,-7,-354
12:43:19.412,,-1985,-125,-333
12:43:19.422,,-1998,-221,-227
12:43:19.432,,-1998,-309,-66
12:43:19.442,,-1998,-406,-16
12:43:19.452,,-1998,-512,55
12:43:19.462,,-1998,-601,-102
12:43:19.472,,-1998,-665,-127
12:43:19.482,,-1998,-713,-67
12:43:19.492,,-1998,-738,16
12:43:19.502,,-1998,-722,48
12:43:19.512,,-1998,-634,9
12:43:19.522,,-1998,-505,-63
12:43:19.532,,-1998,-379,-88
12:43:19.542,,-1998,-287,-46
12:43:19.552,,-1847,-216,-6
12:43:19.562,,-1623,-179,18
12:43:19.572,,-1437,-163,26
12:43:19.582,,-1257,-172,62
12:43:19.592,,-884,-138,84
12:43:19.602,,-693,-97,31
12:43:19.612,,-504,-47,-25
12:43:19.622,,-303,18,-73
12:43:19.632,,-135,66,-119
12:43:19.642,,-32,128,-166
12:43:19.652,,39,159,-197
12:43:19.662,,104,191,-204
12:43:19.672,,102,206,-241
12:43:19.682,,95,230,-272
12:43:19.692,,97,279,-297
12:43:19.702,,118,353,-341
12:43:19.712,,173,406,-371
12:43:19.722,,192,416,-383
12:43:19.732,,179,419,-345
12:43:19.742,,152,410,-315
12:43:19.752,,130,393,-266
12:43:19.762,,110,395,-190
12:43:19.772,,91,461,-192
12:43:19.782,,111,572,-272
12:43:19.792,,114,688,-403
12:43:19.802,,171,802,-560
12:43:19.812,,273,859,-602
12:43:19.822,,360,879,-620
12:43:19.832,,399,853,-541
12:43:19.842,,426,767,-358
12:43:19.852,,453,722,-75
12:43:19.862,,455,810,-159
12:43:19.872,,492,893,-256
12:43:19.882,,523,1058,-511
12:43:19.892,,536,1186,-767
12:43:19.902,,532,1274,-947
12:43:19.912,,572,1334,-1038
12:43:19.922,,576,1390,-1044
12:43:19.932,,592,1463,-1048
12:43:19.942,,671,1599,-1107
12:43:19.952,,758,1733,-1272
12:43:19.962,,879,1889,-1486
12:43:19.972,,998,1995,-1983
12:43:19.982,,1058,1997,-1997
12:43:19.992,,1030,1997,-1997
12:43:20.002,,1032,1997,-1997
12:43:20.012,,1026,1997,-1997
12:43:20.022,,1000,1997,-1997
12:43:20.032,,948,1997,-1997
12:43:20.042,,902,1997,-1990
12:43:20.052,,867,1984,-1844
12:43:20.062,,858,1889,-1536
12:43:20.072,,894,1735,-1182
12:43:20.082,,951,1639,-878
12:43:20.092,,982,1579,-731
12:43:20.102,,918,1469,-606
12:43:20.112,,839,1373,-542
12:43:20.122,,783,1307,-474
12:43:20.132,,718,1220,-389
12:43:20.142,,609,1123,-301
12:43:20.152,,503,1025,-218
12:43:20.162,,434,930,-98
12:43:20.172,,374,867,-5
12:43:20.182,,341,847,-50
12:43:20.192,,301,846,-150
12:43:20.202,,210,823,-232
12:43:20.212,,108,768,-244
12:43:20.222,,33,690,-199
12:43:20.232,,-72,506,-49
12:43:20.242,,-144,435,50
12:43:20.252,,-201,344,109
12:43:20.262,,-241,285,83
12:43:20.272,,-290,250,22
12:43:20.282,,-312,218,-30
12:43:20.292,,-314,198,-89
12:43:20.302,,-338,232,-169
12:43:20.447,,-724,-132,-421
12:43:20.448,,-724,-132,-421
12:43:20.449,,-724,-132,-421
12:43:20.451,,-724,-132,-421
12:43:20.452,,-724,-132,-421
12:43:20.453,,-724,-132,-421
12:43:20.455,,-753,-150,-367
12:43:20.456,,-753,-150,-367
12:43:20.457,,-753,-150,-367
12:43:20.459,,-753,-150,-367
12:43:20.460,,-753,-150,-367
12:43:20.462,,-753,-150,-367
12:43:20.463,,-753,-150,-367
12:43:20.464,,-749,-136,-326
12:43:20.466,,-749,-136,-326
12:43:20.467,,-749,-136,-326
12:43:20.472,,-749,-136,-326
12:43:20.482,,-738,-59,-341
12:43:20.492,,-745,125,-439
12:43:20.502,,-841,175,-457
12:43:20.512,,-1008,234,-502
12:43:20.522,,-1322,350,-668
12:43:20.532,,-1686,425,-848
12:43:20.542,,-1967,391,-878
12:43:20.552,,-1998,276,-731
12:43:20.562,,-1998,112,-592
12:43:20.572,,-1998,-10,-619
12:43:20.582,,-1998,-107,-684
12:43:20.592,,-1998,-170,-701
12:43:20.602,,-1998,-179,-690
12:43:20.612,,-1998,-153,-698
12:43:20.622,,-1998,-91,-826
12:43:20.632,,-1998,-69,-773
12:43:20.642,,-1998,-80,-680
12:43:20.652,,-1998,-110,-568
12:43:20.662,,-1998,-158,-450
12:43:20.672,,-1998,-188,-315
12:43:20.682,,-1998,-278,2
12:43:20.692,,-1998,-406,398
12:43:20.702,,-1998,-463,567
12:43:20.712,,-1998,-445,541
12:43:20.722,,-1992,-374,428
12:43:20.732,,-1900,-300,339
12:43:20.742,,-1749,-287,349
12:43:20.752,,-1336,-317,518
12:43:20.762,,-999,-204,634
12:43:20.772,,-674,-83,715
12:43:20.782,,-364,-9,708
12:43:20.792,,-187,60,644
12:43:20.802,,-47,29,620
12:43:20.812,,6,27,513
12:43:20.822,,19,58,349
12:43:20.832,,71,99,281
12:43:20.842,,189,124,317
12:43:20.852,,265,170,318
12:43:20.862,,337,229,228
12:43:20.872,,466,436,-55
12:43:20.882,,635,533,-157
12:43:20.892,,659,536,-213
12:43:20.902,,651,544,-269
12:43:20.912,,582,542,-302
12:43:20.922,,446,504,-346
12:43:20.932,,330,523,-442
12:43:20.942,,157,565,-588
12:43:20.952,,58,639,-704
12:43:20.962,,-32,806,-885
12:43:20.972,,-48,941,-1005
12:43:20.982,,8,991,-1007
12:43:20.992,,109,972,-890
12:43:21.002,,64,899,-768
12:43:21.012,,-64,890,-900
12:43:21.022,,-220,844,-1000
12:43:21.032,,-349,884,-1054
12:43:21.042,,-438,1055,-1208
12:43:21.052,,-563,1231,-1389
12:43:21.062,,-638,1365,-1608
12:43:21.072,,-718,1519,-1737
12:43:21.082,,-836,1686,-1911
12:43:21.092,,-940,1772,-1995
12:43:21.102,,-1023,1830,-1997
12:43:21.112,,-1137,1812,-1997
12:43:21.122,,-1236,1775,-1997
12:43:21.132,,-1306,1651,-1997
12:43:21.142,,-1246,1542,-1997
12:43:21.152,,-1217,1430,-1975
12:43:21.162,,-1174,1280,-1792
12:43:21.172,,-1141,1235,-1696
12:43:21.182,,-1143,1224,-1604
12:43:21.192,,-1153,1202,-1487
12:43:21.202,,-1123,1133,-1313
12:43:21.212,,-1124,1070,-1129
12:43:21.222,,-1198,1022,-946
12:43:21.232,,-1245,883,-739
12:43:21.242,,-1288,790,-581
12:43:21.252,,-1253,752,-495
12:43:21.262,,-1197,763,-224
12:43:21.272,,-1185,747,-100
12:43:21.282,,-1173,770,6
12:43:21.292,,-1181,754,149
12:43:21.302,,-1234,772,367
12:43:21.312,,-1247,724,595
12:43:21.322,,-1207,722,839
12:43:21.332,,-1137,766,970
12:43:21.342,,-1063,765,1115
12:43:21.352,,-993,755,1238
12:43:21.362,,-982,713,1426
12:43:21.372,,-953,545,1778
12:43:21.382,,-812,298,1996
12:43:21.392,,-663,127,1998
12:43:21.402,,-394,163,1998
12:43:21.412,,-340,357,1939
12:43:21.422,,-363,454,1825
12:43:21.432,,-309,407,1955
12:43:21.442,,-114,-96,1998
12:43:21.452,,181,-302,1998
12:43:21.462,,354,-446,1998
12:43:21.472,,668,-544,1998
12:43:21.482,,621,-456,1998
12:43:21.492,,386,-489,1998
12:43:21.502,,205,-546,1998
12:43:21.512,,-40,-531,1998
12:43:21.522,,-89,-678,1998
12:43:21.532,,142,-805,1998
12:43:21.542,,381,-801,1998
12:43:21.552,,412,-736,1998
12:43:21.562,,379,-623,1998
12:43:21.572,,188,-595,1998
12:43:21.582,,-7,-616,1998
12:43:21.592,,-114,-696,1998
12:43:21.602,,-158,-858,1998
12:43:21.612,,-157,-925,1998
12:43:21.622,,-138,-1000,1998
12:43:21.632,,38,-999,1998
12:43:21.642,,194,-586,1998
12:43:21.652,,102,-256,1998
12:43:21.662,,-257,-57,1775
12:43:21.672,,-562,17,1338
12:43:21.682,,-751,-55,886
12:43:21.692,,-714,-53,428
12:43:21.702,,-626,66,277
12:43:21.712,,-487,103,332
12:43:21.722,,-291,-16,696
12:43:21.732,,-42,-246,999
12:43:21.742,,24,-132,941
12:43:21.887,,-1004,468,-813
12:43:21.888,,-1004,468,-813
12:43:21.890,,-1004,468,-813
12:43:21.891,,-1004,468,-813
12:43:21.893,,-1054,556,-1157
12:43:21.894,,-1054,556,-1157
12:43:21.895,,-1054,556,-1157
12:43:21.897,,-1054,556,-1157
12:43:21.898,,-1054,556,-1157
12:43:21.899,,-1054,556,-1157
12:43:21.901,,-1054,556,-1157
12:43:21.902,,-996,576,-1363
12:43:21.903,,-996,576,-1363
12:43:21.905,,-996,576,-1363
12:43:21.906,,-996,576,-1363
12:43:21.908,,-996,576,-1363
12:43:21.912,,-903,525,-1356
12:43:21.922,,-781,470,-1187
12:43:21.932,,-702,474,-1090
12:43:21.942,,-659,529,-1137
12:43:21.952,,-639,640,-1227
12:43:21.962,,-726,744,-1349
12:43:21.972,,-910,817,-1521
12:43:21.982,,-1010,910,-1699
12:43:21.992,,-1055,1021,-1828
12:43:22.002,,-1077,1086,-1882
12:43:22.012,,-1079,1047,-1814
12:43:22.022,,-1191,995,-1805
12:43:22.032,,-1291,1075,-1997
12:43:22.042,,-1193,1022,-1997
12:43:22.052,,-1067,1030,-1997
12:43:22.062,,-941,1031,-1997
12:43:22.072,,-820,939,-1937
12:43:22.082,,-695,848,-1774
12:43:22.092,,-538,838,-1615
12:43:22.102,,-452,765,-1438
12:43:22.112,,-398,682,-1285
12:43:22.122,,-429,555,-1088
12:43:22.132,,-506,462,-884
12:43:22.142,,-544,401,-768
12:43:22.152,,-563,379,-712
12:43:22.162,,-597,331,-641
12:43:22.172,,-593,387,-544
12:43:22.182,,-636,433,-415
12:43:22.192,,-630,383,-274
12:43:22.202,,-626,425,-66
12:43:22.212,,-651,535,101
12:43:22.222,,-738,473,163
12:43:22.232,,-854,392,323
12:43:22.242,,-989,404,598
12:43:22.252,,-1029,200,1041
12:43:22.262,,-838,96,1351
12:43:22.272,,-594,165,1273
12:43:22.282,,-447,165,1361
12:43:22.292,,-540,-141,1411
12:43:22.302,,-553,-229,1351
12:43:22.312,,-556,-155,1246
12:43:22.322,,-511,-154,1305
12:43:22.332,,-309,-142,1328
12:43:22.342,,-146,-147,1426
12:43:22.352,,-3,-186,1530
12:43:22.362,,70,-156,1514
12:43:22.372,,-32,0,1313
12:43:22.382,,-213,71,1106
12:43:22.392,,-317,106,1019
12:43:22.402,,-492,86,1120
12:43:22.412,,-614,14,1477
12:43:22.422,,-571,-15,1692
12:43:22.432,,-674,-35,1876
12:43:22.442,,-758,-150,1995
12:43:22.452,,-789,-216,1998
12:43:22.462,,-733,-310,1998
12:43:22.472,,-669,-376,1998
12:43:22.482,,-590,-462,1998
12:43:22.492,,-554,-507,1998
12:43:22.502,,-477,-593,1998
12:43:22.512,,-368,-618,1998
12:43:22.522,,-245,-609,1998
12:43:22.532,,-217,-560,1998
12:43:22.542,,-287,-495,1998
12:43:22.552,,-404,-587,1998
12:43:22.562,,-420,-702,1998
12:43:22.572,,-407,-710,1998
12:43:22.582,,-351,-726,1998
12:43:22.592,,-377,-696,1998
12:43:22.602,,-363,-566,1998
12:43:22.612,,-320,-359,1998
12:43:22.622,,-335,-269,1998
12:43:22.632,,-257,-106,1801
12:43:22.642,,-331,104,1353
12:43:22.652,,-386,234,991
12:43:22.662,,-399,52,733
12:43:22.672,,-465,-332,795
12:43:22.682,,-428,-446,948
12:43:22.692,,-452,-497,1001
12:43:22.702,,-540,-530,1065
12:43:22.712,,-427,-400,877
12:43:22.722,,-452,-231,671
12:43:22.732,,-498,-174,481
12:43:22.742,,-412,-210,327
12:43:22.752,,-335,-303,338
12:43:22.762,,-218,-230,423
12:43:22.772,,-124,-18,439
12:43:22.782,,-164,98,284
12:43:22.792,,-291,136,24
12:43:22.802,,-566,52,-288
12:43:22.812,,-536,28,-238
12:43:22.822,,-515,39,-226
12:43:22.832,,-553,59,-229
12:43:22.842,,-561,77,-251
12:43:22.852,,-570,65,-137
12:43:22.862,,-548,48,-48
12:43:22.872,,-611,160,-223
12:43:22.882,,-808,295,-474
12:43:22.892,,-899,319,-624
12:43:22.902,,-902,324,-663
12:43:22.912,,-989,298,-657
12:43:22.922,,-1082,271,-731
12:43:22.932,,-1210,294,-760
12:43:22.942,,-1178,239,-680
12:43:22.952,,-1124,207,-579
12:43:22.962,,-1085,242,-520
12:43:22.972,,-1071,263,-509
12:43:22.982,,-1150,261,-503
12:43:22.992,,-1312,243,-559
12:43:23.002,,-1369,346,-746
12:43:23.012,,-1326,466,-899
12:43:23.022,,-1198,588,-985
12:43:23.032,,-993,708,-1036
12:43:23.042,,-730,782,-953
12:43:23.052,,-440,811,-832
12:43:23.062,,-240,1068,-939
12:43:23.072,,-229,1269,-1220
12:43:23.082,,-225,1490,-1598
12:43:23.092,,-242,1718,-1913
12:43:23.102,,-353,1736,-1997
12:43:23.112,,-452,1819,-1997
12:43:23.122,,-573,1742,-1997
12:43:23.132,,-704,1598,-1997
12:43:23.142,,-816,1453,-1997
