Sensors' Acquisition [Hz]: Acc@104.0 
hh:mm:ss.ms, Annotation , AccX [mg], AccY, AccZ
17:19:36.342,,-378,108,482
17:19:36.352,,-292,-20,718
17:19:36.362,,-150,-253,873
17:19:36.372,,-9,-438,1043
17:19:36.382,,58,-594,1255
17:19:36.392,,0,-832,1629
17:19:36.402,,-120,-1098,1938
17:19:36.412,,4,-1501,1998
17:19:36.422,,196,-1893,1998
17:19:36.432,>Gesture,,,
17:19:36.433,,268,-1998,1998
17:19:36.442,,176,-1998,1998
17:19:36.453,,129,-1927,1998
17:19:36.462,,99,-1773,1998
17:19:36.473,,137,-1680,1998
17:19:36.482,,172,-1594,1998
17:19:36.493,,214,-1658,1998
17:19:36.502,,299,-1615,1973
17:19:36.512,,244,-1447,1825
17:19:36.522,,181,-1392,1694
17:19:36.532,,101,-1242,1593
17:19:36.542,,41,-1091,1475
17:19:36.552,,36,-966,1319
17:19:36.562,,48,-750,1176
17:19:36.572,,-14,-223,677
17:19:36.582,,-88,-76,430
17:19:36.592,,-120,-28,281
17:19:36.602,,-122,53,154
17:19:36.612,,-155,69,23
17:19:36.622,,-122,178,-105
17:19:36.632,,-101,151,-165
17:19:36.642,,-86,111,-221
17:19:36.652,,-16,183,-266
17:19:36.662,,63,217,-448
17:19:36.672,,160,295,-730
17:19:36.682,,78,353,-1036
17:19:36.692,,-25,370,-1231
17:19:36.702,,-127,405,-1237
17:19:36.712,,-175,392,-1240
17:19:36.722,,-200,404,-1167
17:19:36.732,,-240,378,-1085
17:19:36.742,,-232,353,-1023
17:19:36.752,,-194,341,-1000
17:19:36.762,,-127,358,-1124
17:19:36.772,,-98,402,-1314
17:19:36.782,,-129,442,-1464
17:19:36.792,,-152,448,-1577
17:19:36.802,,-137,437,-1624
17:19:36.812,,-128,411,-1613
17:19:36.822,,-114,360,-1412
17:19:36.832,,-73,302,-1402
17:19:36.842,,-31,272,-1326
17:19:36.852,,3,227,-1203
17:19:36.862,,60,181,-1076
17:19:36.872,,111,187,-991
17:19:36.882,,118,220,-877
17:19:36.892,,109,244,-755
17:19:36.902,,118,281,-629
17:19:36.912,,120,303,-447
17:19:36.922,,72,277,-228
17:19:36.932,,50,257,-31
17:19:36.942,,39,187,196
17:19:36.952,,-37,-110,715
17:19:36.962,,50,-293,935
17:19:36.972,,202,-563,1197
17:19:36.982,,152,-902,1545
17:19:36.992,,-26,-1171,1858
17:19:37.002,,-52,-1434,1998
17:19:37.012,,-64,-1617,1998
17:19:37.022,,-185,-1676,1998
17:19:37.032,,-231,-1634,1998
17:19:37.042,,-214,-1511,1998
17:19:37.052,,-118,-1383,1998
17:19:37.062,,25,-1298,1998
17:19:37.072,,133,-1320,1970
17:19:37.082,,202,-1536,1998
17:19:37.092,,176,-1675,1998
17:19:37.102,,65,-1805,1998
17:19:37.112,,6,-1797,1998
17:19:37.122,,-100,-1688,1998
17:19:37.132,,-101,-1439,1998
17:19:37.142,,-30,-1145,1915
17:19:37.152,,8,-828,1606
17:19:37.162,,43,-586,1346
17:19:37.172,,13,-495,1262
17:19:37.182,,-11,-337,1211
17:19:37.192,,-60,-246,977
17:19:37.202,,15,-1,804
17:19:37.212,,47,267,305
17:19:37.222,,4,338,56
17:19:37.232,,62,420,-221
17:19:37.242,,108,439,-637
17:19:37.252,,64,414,-961
17:19:37.262,,44,378,-1110
17:19:37.272,,-20,369,-1135
17:19:37.282,,-95,361,-1150
17:19:37.292,,-112,361,-1161
17:19:37.302,,-173,390,-1124
17:19:37.312,,-294,509,-1163
17:19:37.322,,-502,583,-1383
17:19:37.332,,-552,655,-1631
17:19:37.342,,-520,721,-1857
17:19:37.352,,-463,734,-1961
17:19:37.362,,-332,701,-1949
17:19:37.372,,-161,624,-1788
17:19:37.382,,-22,545,-1532
17:19:37.392,,63,472,-1355
17:19:37.402,,97,421,-1230
17:19:37.412,,24,388,-1101
17:19:37.422,,-61,361,-976
17:19:37.432,,-90,358,-824
17:19:37.442,,-105,367,-693
17:19:37.452,,-120,405,-624
17:19:37.462,,-104,401,-288
17:19:37.472,,84,333,-110
17:19:37.482,,242,228,66
17:19:37.492,,324,150,319
17:19:37.502,,247,71,680
17:19:37.512,,162,12,1072
17:19:37.522,,156,-146,1331
17:19:37.532,,146,-392,1595
17:19:37.542,,164,-710,1887
17:19:37.552,,195,-1012,1998
17:19:37.562,,194,-1218,1998
17:19:37.572,,162,-1326,1998
17:19:37.582,,113,-1461,1998
17:19:37.592,,12,-1761,1998
17:19:37.602,,-73,-1761,1998
17:19:37.612,,-96,-1734,1998
17:19:37.622,,-73,-1667,1998
17:19:37.632,,47,-1530,1998
17:19:37.642,,107,-1363,1998
17:19:37.652,,60,-1192,1998
17:19:37.662,,57,-1042,1981
17:19:37.672,,55,-912,1842
17:19:37.682,,-13,-827,1736
17:19:37.692,,-56,-772,1709
17:19:37.702,,9,-710,1519
17:19:37.712,,39,-583,1284
17:19:37.722,,-29,-298,967
17:19:37.732,,-151,-133,947
17:19:37.742,,-207,63,782
17:19:37.752,,-170,190,526
17:19:37.762,,-121,175,264
17:19:37.772,,-29,103,124
17:19:37.899,,-46,691,-1994
17:19:37.901,,-46,691,-1994
17:19:37.902,,-46,691,-1994
17:19:37.903,,-46,691,-1994
17:19:37.905,,-46,691,-1994
17:19:37.906,,-46,691,-1994
17:19:37.907,,-46,691,-1997
17:19:37.909,,16,695,-1997
17:19:37.910,,16,695,-1997
17:19:37.912,,16,695,-1997
17:19:37.913,,16,695,-1997
17:19:37.914,,16,695,-1997
17:19:37.916,,16,695,-1997
17:19:37.917,,50,699,-1997
17:19:37.922,,50,699,-1997
17:19:37.932,,52,691,-1991
17:19:37.942,,67,663,-1877
17:19:37.952,,98,623,-1755
17:19:37.962,,95,564,-1594
17:19:37.972,,85,507,-1441
17:19:37.982,,40,408,-1170
17:19:37.992,,23,394,-1074
17:19:38.002,,26,374,-948
17:19:38.012,,36,363,-800
17:19:38.022,,62,367,-578
17:19:38.032,,19,340,-295
17:19:38.042,,-17,314,2
17:19:38.052,,22,296,266
17:19:38.062,,173,251,446
17:19:38.072,,319,127,541
17:19:38.082,,364,92,688
17:19:38.092,,224,73,974
17:19:38.102,,12,24,1612
17:19:38.112,,-176,-248,1800
17:19:38.122,,-57,-459,1949
17:19:38.132,,28,-659,1998
17:19:38.142,,42,-844,1998
17:19:38.152,,6,-996,1998
17:19:38.162,,-19,-1081,1998
17:19:38.172,,-84,-1177,1998
17:19:38.182,,-211,-1234,1998
17:19:38.192,,-298,-1283,1998
17:19:38.202,,-375,-1343,1998
17:19:38.212,,-397,-1344,1998
17:19:38.222,,-315,-1285,1998
17:19:38.232,,-223,-1180,1998
17:19:38.242,,-79,-1116,1998
17:19:38.252,,-90,-1116,1998
17:19:38.262,,-72,-1093,1988
17:19:38.272,,-90,-967,1917
17:19:38.282,,-112,-782,1777
17:19:38.292,,-78,-588,1610
17:19:38.302,,-35,-378,1418
17:19:38.312,,-4,-80,1135
17:19:38.322,,-31,197,816
17:19:38.332,,-64,300,573
17:19:38.342,,-66,310,383
17:19:38.352,,-43,277,178
17:19:38.362,,-48,229,-187
17:19:38.372,,39,224,-322
17:19:38.382,,80,194,-434
17:19:38.392,,122,180,-536
17:19:38.402,,103,198,-653
17:19:38.412,,81,227,-817
17:19:38.422,,71,271,-1058
17:19:38.432,,33,280,-1216
17:19:38.442,,-31,283,-1274
17:19:38.452,,-108,305,-1299
17:19:38.462,,-183,345,-1343
17:19:38.472,,-268,428,-1445
17:19:38.482,,-380,501,-1546
17:19:38.492,,-422,565,-1649
17:19:38.502,,-432,593,-1751
17:19:38.512,,-405,646,-1875
17:19:38.522,,-339,636,-1920
17:19:38.532,,-250,593,-1854
17:19:38.542,,-142,541,-1729
17:19:38.552,,-58,469,-1599
17:19:38.562,,-12,401,-1449
17:19:38.572,,1,351,-1272
17:19:38.582,,-27,318,-1153
17:19:38.592,,-31,292,-985
17:19:38.602,,-30,271,-810
17:19:38.612,,-30,266,-687
17:19:38.622,,8,261,-371
17:19:38.632,,51,242,-194
17:19:38.642,,85,222,-43
17:19:38.652,,92,207,104
17:19:38.662,,89,199,290
17:19:38.672,,112,136,448
17:19:38.682,,198,53,656
17:19:38.692,,224,-75,951
17:19:38.702,,160,-254,1326
17:19:38.712,,132,-428,1656
17:19:38.722,,188,-739,1784
17:19:38.732,,336,-1030,1898
17:19:38.742,,363,-1271,1995
17:19:38.752,,76,-1526,1998
17:19:38.762,,-94,-1499,1998
17:19:38.772,,-176,-1462,1998
17:19:38.782,,-198,-1451,1998
17:19:38.792,,-218,-1441,1998
17:19:38.802,,-204,-1380,1998
17:19:38.812,,-121,-1365,1998
17:19:38.822,,-40,-1372,1998
17:19:38.832,,50,-1327,1998
17:19:38.842,,62,-1245,1998
17:19:38.852,,22,-1135,1973
17:19:38.862,,39,-1061,1826
17:19:38.872,,-5,-1033,1843
17:19:38.882,,-90,-872,1693
17:19:38.892,,-122,-704,1601
17:19:38.902,,-134,-424,1407
17:19:38.912,,-126,-191,1130
17:19:38.922,,-85,-21,942
17:19:38.932,,-56,95,730
17:19:38.942,,-41,146,499
17:19:38.952,,-36,209,269
17:19:38.962,,-55,239,7
17:19:38.972,,-43,230,-118
17:19:38.982,,-10,246,-231
17:19:38.992,,2,211,-270
17:19:39.002,,57,275,-353
17:19:39.012,,35,353,-444
17:19:39.022,,24,438,-598
17:19:39.032,,45,508,-857
17:19:39.042,,29,523,-1057
17:19:39.052,,-37,492,-1172
17:19:39.062,,-78,506,-1206
17:19:39.072,,-66,516,-1222
17:19:39.082,,-67,528,-1209
17:19:39.092,,-64,532,-1205
17:19:39.102,,-72,537,-1200
17:19:39.112,,-47,546,-1210
17:19:39.122,,11,541,-1292
17:19:39.132,,110,568,-1571
17:19:39.142,,119,573,-1797
17:19:39.152,,116,548,-1979
17:19:39.162,,124,519,-1997
17:19:39.172,,132,512,-1997
17:19:39.182,,147,492,-1975
17:19:39.192,,185,441,-1819
17:19:39.202,,220,380,-1631
17:19:39.212,,260,307,-1426
17:19:39.222,,284,247,-1224
17:19:39.232,,285,257,-1092
17:19:39.242,,234,322,-1041
17:19:39.252,,169,425,-853
17:19:39.262,,1,658,-455
17:19:39.384,,-343,-1303,1998
17:19:39.386,,-343,-1303,1998
17:19:39.387,,-343,-1303,1998
17:19:39.388,,-343,-1303,1998
17:19:39.390,,-343,-1303,1998
17:19:39.391,,-343,-1303,1998
17:19:39.393,,-383,-1246,1998
17:19:39.394,,-383,-1246,1998
17:19:39.395,,-383,-1246,1998
17:19:39.397,,-383,-1246,1998
17:19:39.398,,-383,-1246,1998
17:19:39.399,,-383,-1246,1998
17:19:39.401,,-383,-1246,1998
17:19:39.402,,-330,-1170,1998
17:19:39.412,,-266,-1166,1998
17:19:39.422,,-261,-1235,1998
17:19:39.432,,-220,-1314,1998
17:19:39.442,,-152,-1439,1998
17:19:39.452,,-215,-1586,1998
17:19:39.462,,-291,-1625,1998
17:19:39.472,,-287,-1586,1998
17:19:39.482,,-280,-1477,1998
17:19:39.492,,-283,-1314,1998
17:19:39.502,,-266,-1088,1948
17:19:39.512,,-239,-824,1499
17:19:39.522,,-118,-487,1331
17:19:39.532,,-66,-362,1159
17:19:39.542,,-56,-206,958
17:19:39.552,,-83,-75,796
17:19:39.562,,-140,52,602
17:19:39.572,,-204,172,369
17:19:39.582,,-274,224,180
17:19:39.592,,-269,266,44
17:19:39.602,,-192,256,-85
17:19:39.612,,-92,188,-184
17:19:39.622,,-12,287,-361
17:19:39.632,,-17,416,-696
17:19:39.642,,-103,491,-1341
17:19:39.652,,-249,465,-1494
17:19:39.662,,-236,395,-1489
17:19:39.672,,-189,325,-1391
17:19:39.682,,-158,301,-1297
17:19:39.692,,-211,329,-1315
17:19:39.702,,-255,373,-1370
17:19:39.712,,-264,410,-1439
17:19:39.722,,-260,428,-1495
17:19:39.732,,-244,422,-1576
17:19:39.742,,-185,487,-1651
17:19:39.752,,-162,420,-1673
17:19:39.762,,-98,376,-1593
17:19:39.772,,-1,239,-1406
17:19:39.782,,-9,170,-1275
17:19:39.792,,-20,103,-1158
17:19:39.802,,-23,33,-1071
17:19:39.812,,-7,-36,-968
17:19:39.822,,11,-115,-890
17:19:39.832,,41,-83,-903
17:19:39.842,,77,-125,-887
17:19:39.852,,88,-150,-816
17:19:39.862,,174,-225,-704
17:19:39.872,,272,-294,-548
17:19:39.882,,339,-368,-346
17:19:39.892,,381,-456,-124
17:19:39.902,,261,-789,694
17:19:39.912,,81,-978,1073
17:19:39.922,,-131,-1147,1387
17:19:39.932,,-254,-1338,1582
17:19:39.942,,-203,-1532,1646
17:19:39.952,,-122,-1688,1726
17:19:39.962,,-4,-1851,1874
17:19:39.972,,61,-1998,1977
17:19:39.982,,49,-1998,1998
17:19:39.992,,-14,-1960,1998
17:19:40.002,,-65,-1822,1943
17:19:40.012,,-101,-1765,1821
17:19:40.022,,-76,-1703,1675
17:19:40.032,,-124,-1473,1374
17:19:40.042,,-194,-1342,1247
17:19:40.052,,-265,-1217,1077
17:19:40.062,,-351,-1077,926
17:19:40.072,,-368,-961,771
17:19:40.082,,-362,-814,580
17:19:40.092,,-357,-695,409
17:19:40.102,,-338,-581,333
17:19:40.112,,-328,-621,270
17:19:40.122,,-312,-499,144
17:19:40.132,,-389,-344,11
17:19:40.142,,-467,-210,-73
17:19:40.152,,-446,-155,-228
17:19:40.162,,-286,-47,-585
17:19:40.172,,-176,-16,-818
17:19:40.182,,-159,25,-1012
17:19:40.192,,-183,95,-1086
17:19:40.202,,-214,130,-1193
17:19:40.212,,-248,147,-1296
17:19:40.222,,-262,157,-1373
17:19:40.232,,-229,156,-1396
17:19:40.242,,-186,155,-1447
17:19:40.252,,-133,137,-1502
17:19:40.262,,-90,126,-1562
17:19:40.272,,-90,108,-1525
17:19:40.282,,-60,113,-1444
17:19:40.292,,-25,95,-1366
17:19:40.302,,-4,37,-1293
17:19:40.312,,50,-48,-1241
17:19:40.322,,125,-129,-1178
17:19:40.332,,191,-207,-1140
17:19:40.342,,261,-284,-1090
17:19:40.352,,319,-337,-999
17:19:40.362,,326,-320,-939
17:19:40.372,,270,-239,-918
17:19:40.382,,213,-163,-872
17:19:40.392,,193,-75,-781
17:19:40.402,,211,-1,-628
17:19:40.412,,246,73,-225
17:19:40.422,,376,76,97
17:19:40.432,,410,38,298
17:19:40.442,,388,30,476
17:19:40.452,,317,54,665
17:19:40.462,,213,78,896
17:19:40.472,,37,94,1156
17:19:40.482,,-62,79,1428
17:19:40.492,,-99,23,1754
17:19:40.502,,-109,-110,1989
17:19:40.512,,-25,-278,1998
17:19:40.522,,96,-408,1998
17:19:40.532,,216,-512,1998
17:19:40.542,,286,-566,1998
17:19:40.552,,323,-558,1998
17:19:40.562,,326,-580,1998
17:19:40.572,,299,-639,1998
17:19:40.582,,211,-758,1998
17:19:40.592,,148,-889,1998
17:19:40.602,,170,-925,1998
17:19:40.612,,192,-877,1998
17:19:40.622,,248,-729,1998
17:19:40.632,,292,-521,1998
17:19:40.642,,285,-346,1994
17:19:40.652,,217,-275,1865
17:19:40.662,,115,-238,1696
17:19:40.672,,-225,-199,1612
17:19:40.682,,-357,-195,1629
17:19:40.692,,-333,-171,1523
17:19:40.702,,-294,-138,1353
17:19:40.712,,-192,-28,1193
17:19:40.840,,-188,78,-1115
17:19:40.841,,-188,78,-1115
17:19:40.842,,-188,78,-1115
17:19:40.844,,-188,78,-1115
17:19:40.845,,-188,78,-1115
17:19:40.847,,-188,78,-1115
17:19:40.848,,-188,37,-1183
17:19:40.849,,-108,37,-1183
17:19:40.851,,-108,37,-1183
17:19:40.852,,-108,37,-1183
17:19:40.853,,-108,37,-1183
17:19:40.855,,-108,37,-1183
17:19:40.856,,-108,37,-1183
17:19:40.857,,-29,52,-1361
17:19:40.862,,-29,52,-1361
17:19:40.872,,-24,78,-1581
17:19:40.882,,-54,91,-1716
17:19:40.892,,-90,99,-1808
17:19:40.902,,-97,99,-1867
17:19:40.912,,-104,112,-1833
17:19:40.922,,-116,116,-1583
17:19:40.932,,-61,75,-1429
17:19:40.942,,-28,46,-1281
17:19:40.952,,12,20,-1153
17:19:40.962,,60,-9,-998
17:19:40.972,,116,-27,-802
17:19:40.982,,181,-43,-654
17:19:40.992,,264,-39,-528
17:19:41.002,,321,1,-383
17:19:41.012,,363,64,-250
17:19:41.022,,388,158,5
17:19:41.032,,354,239,246
17:19:41.042,,330,289,535
17:19:41.052,,290,296,1346
17:19:41.062,,129,56,1862
17:19:41.072,,92,-177,1998
17:19:41.082,,106,-484,1998
17:19:41.092,,178,-674,1998
17:19:41.102,,246,-829,1998
17:19:41.112,,304,-1025,1998
17:19:41.122,,239,-998,1998
17:19:41.132,,210,-889,1998
17:19:41.142,,237,-827,1998
17:19:41.152,,242,-824,1998
17:19:41.162,,170,-899,1998
17:19:41.172,,52,-934,1998
17:19:41.182,,95,-996,1998
17:19:41.192,,119,-902,1998
17:19:41.202,,195,-779,1998
17:19:41.212,,264,-613,1975
17:19:41.222,,259,-546,1789
17:19:41.232,,223,-503,1639
17:19:41.242,,193,-497,1528
17:19:41.252,,58,-543,1556
17:19:41.262,,-80,-543,1608
17:19:41.272,,-96,-529,1576
17:19:41.282,,-66,-395,1475
17:19:41.292,,-12,-211,1283
17:19:41.302,,20,-71,1093
17:19:41.312,,149,58,719
17:19:41.322,,194,110,477
17:19:41.332,,170,191,220
17:19:41.342,,89,215,3
17:19:41.352,,14,194,-142
17:19:41.362,,-35,127,-228
17:19:41.372,,-59,138,-298
17:19:41.382,,-46,164,-465
17:19:41.392,,-51,185,-665
17:19:41.402,,-70,185,-816
17:19:41.412,,-131,214,-957
17:19:41.422,,-187,264,-1127
17:19:41.432,,-261,326,-1347
17:19:41.442,,-419,343,-1633
17:19:41.452,,-447,318,-1625
17:19:41.462,,-417,297,-1568
17:19:41.472,,-379,283,-1542
17:19:41.482,,-352,289,-1557
17:19:41.492,,-308,280,-1583
17:19:41.502,,-280,274,-1595
17:19:41.512,,-289,261,-1588
17:19:41.522,,-285,233,-1562
17:19:41.532,,-273,206,-1504
17:19:41.542,,-262,179,-1445
17:19:41.552,,-241,156,-1368
17:19:41.562,,-223,129,-1232
17:19:41.572,,-127,86,-989
17:19:41.582,,-133,101,-876
17:19:41.592,,-111,125,-736
17:19:41.602,,-59,119,-524
17:19:41.612,,-21,104,-294
17:19:41.622,,2,72,-76
17:19:41.632,,17,66,91
17:19:41.642,,36,52,202
17:19:41.652,,95,69,259
17:19:41.662,,169,97,343
17:19:41.672,,272,114,476
17:19:41.682,,369,121,660
17:19:41.692,,417,78,1288
17:19:41.702,,250,-177,1742
17:19:41.712,,274,-410,1988
17:19:41.722,,327,-654,1998
17:19:41.732,,288,-948,1998
17:19:41.742,,239,-1076,1998
17:19:41.752,,221,-1156,1998
17:19:41.762,,186,-1194,1998
17:19:41.772,,194,-1176,1998
17:19:41.782,,288,-1189,1998
17:19:41.792,,390,-1231,1998
17:19:41.802,,519,-1231,1998
17:19:41.812,,604,-1175,1998
17:19:41.822,,615,-1148,1998
17:19:41.832,,594,-1141,1998
17:19:41.842,,508,-1097,1981
17:19:41.852,,420,-1008,1907
17:19:41.862,,365,-903,1781
17:19:41.872,,338,-829,1633
17:19:41.882,,307,-765,1574
17:19:41.892,,279,-673,1448
17:19:41.902,,227,-542,1312
17:19:41.912,,153,-413,1189
17:19:41.922,,114,-333,1112
17:19:41.932,,89,-236,1027
17:19:41.942,,50,-92,946
17:19:41.952,,35,191,490
17:19:41.962,,-81,266,188
17:19:41.972,,-150,264,3
17:19:41.982,,-127,335,-63
17:19:41.992,,-104,324,-211
17:19:42.002,,-61,309,-373
17:19:42.012,,-25,316,-607
17:19:42.022,,-39,311,-805
17:19:42.032,,-149,339,-993
17:19:42.042,,-284,393,-1155
17:19:42.052,,-412,424,-1264
17:19:42.062,,-513,447,-1365
17:19:42.072,,-611,492,-1481
17:19:42.082,,-717,506,-1615
17:19:42.092,,-664,475,-1573
17:19:42.102,,-541,416,-1491
17:19:42.112,,-402,365,-1421
17:19:42.122,,-297,336,-1400
17:19:42.132,,-246,303,-1416
17:19:42.142,,-227,266,-1403
17:19:42.152,,-232,254,-1391
17:19:42.162,,-240,231,-1388
17:19:42.172,,-259,189,-1327
17:19:42.182,,-263,153,-1217
17:19:42.192,,-242,114,-1097
17:19:42.315,,300,-229,1323
17:19:42.316,,300,-229,1323
17:19:42.318,,300,-229,1323
17:19:42.319,,300,-229,1323
17:19:42.320,,300,-229,1323
17:19:42.322,,300,-229,1323
17:19:42.323,,332,-352,1594
17:19:42.324,,332,-352,1594
17:19:42.326,,332,-352,1594
17:19:42.327,,332,-352,1594
17:19:42.329,,332,-352,1594
17:19:42.330,,332,-352,1594
17:19:42.331,,332,-352,1594
17:19:42.333,,333,-585,1880
17:19:42.342,,349,-884,1998
17:19:42.352,,285,-1206,1998
17:19:42.362,,193,-1445,1998
17:19:42.372,,147,-1583,1998
17:19:42.382,,148,-1603,1998
17:19:42.392,,187,-1535,1998
17:19:42.402,,311,-1383,1998
17:19:42.412,,425,-1232,1998
17:19:42.422,,424,-1170,1998
17:19:42.432,,526,-1050,1998
17:19:42.442,,511,-1097,1998
17:19:42.452,,466,-1109,1989
17:19:42.462,,342,-1117,1970
17:19:42.472,,115,-1020,1925
17:19:42.482,,39,-880,1800
17:19:42.492,,5,-730,1669
17:19:42.502,,51,-557,1477
17:19:42.512,,87,-343,1236
17:19:42.522,,117,-138,1003
17:19:42.532,,108,5,792
17:19:42.542,,71,104,535
17:19:42.552,,57,160,303
17:19:42.562,,32,157,113
17:19:42.572,,-51,140,-62
17:19:42.582,,-90,155,-167
17:19:42.592,,-152,198,-479
17:19:42.602,,-142,190,-660
17:19:42.612,,-173,161,-753
17:19:42.622,,-196,144,-802
17:19:42.632,,-192,134,-840
17:19:42.642,,-199,167,-920
17:19:42.652,,-282,263,-1102
17:19:42.662,,-418,343,-1267
17:19:42.672,,-569,406,-1357
17:19:42.682,,-671,432,-1429
17:19:42.692,,-693,448,-1508
17:19:42.702,,-637,447,-1549
17:19:42.712,,-541,414,-1559
17:19:42.722,,-320,288,-1448
17:19:42.732,,-236,217,-1383
17:19:42.742,,-192,154,-1342
17:19:42.752,,-173,100,-1307
17:19:42.762,,-182,60,-1263
17:19:42.772,,-206,30,-1197
17:19:42.782,,-230,0,-1131
17:19:42.792,,-238,-38,-1053
17:19:42.802,,-219,-77,-946
17:19:42.812,,-191,-91,-852
17:19:42.822,,-138,-104,-756
17:19:42.832,,-61,-124,-617
17:19:42.842,,37,-134,-485
17:19:42.852,,204,-169,-240
17:19:42.862,,197,-162,-65
17:19:42.872,,126,-151,164
17:19:42.882,,60,-161,399
17:19:42.892,,29,-180,608
17:19:42.902,,65,-186,780
17:19:42.912,,181,-172,832
17:19:42.922,,343,-164,900
17:19:42.932,,390,-203,1161
17:19:42.942,,311,-291,1516
17:19:42.952,,255,-379,1878
17:19:42.962,,284,-643,1998
17:19:42.972,,312,-957,1998
17:19:42.982,,242,-1465,1998
17:19:42.992,,149,-1531,1998
17:19:43.002,,118,-1495,1998
17:19:43.012,,128,-1370,1998
17:19:43.022,,193,-1181,1998
17:19:43.032,,242,-1014,1998
17:19:43.042,,283,-934,1998
17:19:43.052,,340,-897,1998
17:19:43.062,,338,-894,1997
17:19:43.072,,251,-926,1955
17:19:43.082,,122,-892,1930
17:19:43.092,,1,-867,1914
17:19:43.102,,-57,-805,1684
17:19:43.112,,-81,-574,1549
17:19:43.122,,-66,-432,1378
17:19:43.132,,-29,-307,1198
17:19:43.142,,2,-192,1031
17:19:43.152,,34,-104,817
17:19:43.162,,76,-34,586
17:19:43.172,,63,-20,381
17:19:43.182,,21,42,208
17:19:43.192,,-51,55,35
17:19:43.202,,-104,108,-81
17:19:43.212,,-142,88,-153
17:19:43.222,,-149,97,-233
17:19:43.232,,-117,197,-357
17:19:43.242,,-122,262,-470
17:19:43.252,,-146,323,-613
17:19:43.262,,-188,398,-817
17:19:43.272,,-259,472,-1039
17:19:43.282,,-353,509,-1202
17:19:43.292,,-417,506,-1321
17:19:43.302,,-454,498,-1383
17:19:43.312,,-468,495,-1415
17:19:43.322,,-422,491,-1420
17:19:43.332,,-374,476,-1391
17:19:43.342,,-337,463,-1387
17:19:43.352,,-325,450,-1416
17:19:43.362,,-321,474,-1477
17:19:43.372,,-325,451,-1490
17:19:43.382,,-304,405,-1456
17:19:43.392,,-278,347,-1391
17:19:43.402,,-250,303,-1322
17:19:43.412,,-223,250,-1251
17:19:43.422,,-186,206,-1174
17:19:43.432,,-144,178,-1110
17:19:43.442,,-107,164,-1007
17:19:43.452,,-86,155,-876
17:19:43.462,,-68,130,-751
17:19:43.472,,-59,125,-624
17:19:43.482,,-54,128,-498
17:19:43.492,,-40,228,-169
17:19:43.502,,53,265,30
17:19:43.512,,97,230,323
17:19:43.522,,98,147,654
17:19:43.532,,118,38,935
17:19:43.542,,195,-28,1191
17:19:43.552,,23,-274,1520
17:19:43.562,,-170,-473,1965
17:19:43.572,,-294,-665,1998
17:19:43.582,,-297,-820,1998
17:19:43.592,,-211,-954,1998
