Sensors' Acquisition [Hz]: Acc@104.0 
hh:mm:ss.ms, Annotation , AccX [mg], AccY, AccZ
12:40:35.342,,-45,-1000,165
12:40:35.352,,-42,-997,165
12:40:35.362,,-50,-986,166
12:40:35.372,,-62,-983,170
12:40:35.382,,-69,-976,173
12:40:35.392,,-61,-964,173
12:40:35.402,,-50,-966,172
12:40:35.412,,-47,-982,169
12:40:35.422,,-33,-995,161
12:40:35.432,>Stationary,,,
12:40:35.433,,-25,-1006,152
12:40:35.442,,-20,-1004,150
12:40:35.453,,-9,-998,146
12:40:35.462,,-15,-1006,144
12:40:35.473,,-31,-1013,137
12:40:35.482,,-34,-1008,130
12:40:35.493,,-39,-1007,126
12:40:35.502,,-39,-1014,124
12:40:35.512,,-33,-1023,124
12:40:35.522,,-27,-1022,120
12:40:35.532,,-32,-1012,121
12:40:35.542,,-43,-1010,126
12:40:35.552,,-54,-1005,126
12:40:35.562,,-46,-1000,125
12:40:35.572,,-45,-1007,126
12:40:35.582,,-46,-1024,126
12:40:35.592,,-41,-1028,122
12:40:35.602,,-27,-1017,124
12:40:35.612,,-16,-1008,132
12:40:35.622,,-26,-1006,136
12:40:35.632,,-33,-1003,139
12:40:35.642,,-37,-1003,141
12:40:35.652,,-38,-1003,138
12:40:35.662,,-41,-997,143
12:40:35.672,,-46,-984,143
12:40:35.682,,-49,-996,148
12:40:35.692,,-44,-996,145
12:40:35.702,,-41,-1000,144
12:40:35.712,,-37,-1002,143
12:40:35.722,,-34,-1010,143
12:40:35.732,,-31,-1011,139
12:40:35.742,,-41,-1005,136
12:40:35.752,,-48,-1000,138
12:40:35.762,,-47,-994,144
12:40:35.772,,-40,-991,148
12:40:35.782,,-42,-987,150
12:40:35.792,,-52,-987,146
12:40:35.802,,-54,-996,142
12:40:35.812,,-40,-1004,138
12:40:35.822,,-33,-1013,134
12:40:35.832,,-36,-1016,133
12:40:35.842,,-56,-1008,131
12:40:35.852,,-62,-996,139
12:40:35.862,,-59,-995,142
12:40:35.872,,-50,-996,144
12:40:35.882,,-44,-996,145
12:40:35.892,,-42,-996,147
12:40:35.902,,-41,-988,146
12:40:35.912,,-41,-988,151
12:40:35.922,,-40,-1005,142
12:40:35.932,,-48,-1005,137
12:40:35.942,,-31,-1006,138
12:40:35.952,,-37,-1005,138
12:40:35.962,,-45,-1006,140
12:40:35.972,,-45,-995,139
12:40:35.982,,-30,-990,143
12:40:35.992,,-39,-995,144
12:40:36.002,,-56,-995,143
12:40:36.012,,-59,-992,142
12:40:36.022,,-48,-996,139
12:40:36.032,,-43,-994,134
12:40:36.042,,-31,-996,136
12:40:36.052,,-22,-1006,133
12:40:36.062,,-31,-1009,128
12:40:36.072,,-56,-1022,122
12:40:36.082,,-52,-1020,125
12:40:36.092,,-58,-1009,126
12:40:36.102,,-65,-1007,129
12:40:36.112,,-65,-1004,124
12:40:36.122,,-70,-996,126
12:40:36.132,,-54,-995,130
12:40:36.142,,-47,-1002,134
12:40:36.152,,-48,-1003,132
12:40:36.162,,-44,-1014,130
12:40:36.172,,-50,-1012,126
12:40:36.182,,-53,-1004,130
12:40:36.192,,-46,-1001,139
12:40:36.202,,-34,-992,139
12:40:36.212,,-41,-997,140
12:40:36.222,,-53,-1000,138
12:40:36.232,,-51,-998,137
12:40:36.242,,-44,-999,141
12:40:36.252,,-50,-1000,139
12:40:36.262,,-57,-996,141
12:40:36.272,,-58,-988,144
12:40:36.282,,-58,-988,145
12:40:36.292,,-67,-988,148
12:40:36.302,,-68,-984,149
12:40:36.312,,-63,-990,142
12:40:36.322,,-62,-995,137
12:40:36.332,,-58,-1000,134
12:40:36.342,,-53,-1005,132
12:40:36.352,,-42,-1006,126
12:40:36.362,,-40,-1012,126
12:40:36.372,,-40,-1001,127
12:40:36.382,,-32,-1000,124
12:40:36.392,,-35,-994,129
12:40:36.402,,-43,-993,130
12:40:36.412,,-34,-1001,125
12:40:36.422,,-28,-1004,120
12:40:36.432,,-30,-1008,116
12:40:36.442,,-31,-1008,114
12:40:36.452,,-27,-1024,118
12:40:36.462,,-21,-1029,110
12:40:36.472,,-39,-1023,116
12:40:36.482,,-46,-1011,121
12:40:36.492,,-46,-998,122
12:40:36.502,,-36,-999,127
12:40:36.512,,-41,-1000,127
12:40:36.522,,-42,-1000,125
12:40:36.532,,-32,-996,130
12:40:36.542,,-23,-1001,134
12:40:36.552,,-21,-1003,135
12:40:36.562,,-25,-995,132
12:40:36.572,,-28,-1005,125
12:40:36.582,,-39,-1000,125
12:40:36.592,,-36,-999,129
12:40:36.602,,-42,-993,130
12:40:36.612,,-48,-991,131
12:40:36.622,,-50,-991,128
12:40:36.632,,-45,-993,124
12:40:36.642,,-39,-993,129
12:40:36.652,,-34,-995,125
12:40:36.662,,-33,-1000,122
12:40:36.672,,-27,-1002,121
12:40:36.682,,-24,-998,122
12:40:36.692,,-25,-999,122
12:40:36.702,,-27,-1010,119
12:40:36.712,,-37,-1011,112
12:40:36.722,,-34,-1010,106
12:40:36.732,,-25,-1008,106
12:40:36.742,,-19,-1009,108
12:40:36.752,,-26,-1009,111
12:40:36.762,,-35,-1008,112
12:40:36.772,,-37,-1000,113
12:40:36.782,,-36,-996,116
12:40:36.905,,-49,-1002,106
12:40:36.907,,-49,-1002,104
12:40:36.908,,-39,-991,104
12:40:36.909,,-39,-991,104
12:40:36.911,,-39,-991,104
12:40:36.912,,-39,-991,104
12:40:36.913,,-39,-991,104
12:40:36.915,,-39,-991,104
12:40:36.916,,-26,-993,112
12:40:36.918,,-26,-993,112
12:40:36.919,,-26,-993,112
12:40:36.920,,-26,-993,112
12:40:36.922,,-26,-993,112
12:40:36.923,,-26,-993,112
12:40:36.932,,-30,-1005,108
12:40:36.942,,-41,-1010,99
12:40:36.952,,-42,-1018,90
12:40:36.962,,-46,-1020,90
12:40:36.972,,-22,-1008,96
12:40:36.982,,-29,-1007,94
12:40:36.992,,-32,-1004,93
12:40:37.002,,-21,-1011,100
12:40:37.012,,-18,-1012,98
12:40:37.022,,-2,-1017,95
12:40:37.032,,-17,-1014,92
12:40:37.042,,-26,-1001,96
12:40:37.052,,-20,-997,100
12:40:37.062,,-14,-1001,100
12:40:37.072,,-7,-996,99
12:40:37.082,,0,-1006,99
12:40:37.092,,-19,-1015,89
12:40:37.102,,-30,-1012,86
12:40:37.112,,-25,-1018,86
12:40:37.122,,-25,-1018,88
12:40:37.132,,-28,-1008,93
12:40:37.142,,-28,-1009,96
12:40:37.152,,-30,-1009,94
12:40:37.162,,-36,-1002,94
12:40:37.172,,-22,-1001,96
12:40:37.182,,-19,-1004,97
12:40:37.192,,-23,-999,95
12:40:37.202,,-19,-1005,97
12:40:37.212,,-27,-1007,95
12:40:37.222,,-30,-1012,95
12:40:37.232,,-32,-1003,94
12:40:37.242,,-20,-997,101
12:40:37.252,,-20,-993,100
12:40:37.262,,-22,-995,102
12:40:37.272,,-16,-999,103
12:40:37.282,,-15,-1005,101
12:40:37.292,,-6,-1004,97
12:40:37.302,,-8,-1004,96
12:40:37.312,,-21,-1017,94
12:40:37.322,,-32,-1016,86
12:40:37.332,,-20,-1005,85
12:40:37.342,,-21,-1008,86
12:40:37.352,,-28,-1008,82
12:40:37.362,,-34,-1014,76
12:40:37.372,,-34,-1015,72
12:40:37.382,,-36,-1013,77
12:40:37.392,,-40,-1015,78
12:40:37.402,,-28,-1011,73
12:40:37.412,,-22,-1011,79
12:40:37.422,,-28,-1012,70
12:40:37.432,,-21,-1010,72
12:40:37.442,,-19,-1005,74
12:40:37.452,,-18,-1008,78
12:40:37.462,,-20,-1013,82
12:40:37.472,,-21,-1020,81
12:40:37.482,,-40,-1008,76
12:40:37.492,,-40,-1010,77
12:40:37.502,,-31,-1020,74
12:40:37.512,,-22,-1010,71
12:40:37.522,,-10,-1003,81
12:40:37.532,,-9,-1004,85
12:40:37.542,,-19,-1009,84
12:40:37.552,,-25,-1007,83
12:40:37.562,,-32,-1000,86
12:40:37.572,,-32,-999,91
12:40:37.582,,-34,-1000,88
12:40:37.592,,-28,-1006,87
12:40:37.602,,-25,-1017,85
12:40:37.612,,-16,-1016,82
12:40:37.622,,-21,-1007,88
12:40:37.632,,-30,-1001,92
12:40:37.642,,-27,-1004,94
12:40:37.652,,-25,-999,91
12:40:37.662,,-33,-1000,92
12:40:37.672,,-36,-1007,93
12:40:37.682,,-33,-998,91
12:40:37.692,,-33,-998,94
12:40:37.702,,-36,-999,89
12:40:37.712,,-31,-999,88
12:40:37.722,,-26,-1004,85
12:40:37.732,,-20,-1004,81
12:40:37.742,,-24,-1018,80
12:40:37.752,,-27,-1018,80
12:40:37.762,,-17,-1009,80
12:40:37.772,,-14,-1010,80
12:40:37.782,,-27,-1007,83
12:40:37.792,,-32,-1012,81
12:40:37.802,,-29,-1008,75
12:40:37.812,,-20,-1001,82
12:40:37.822,,-14,-1000,86
12:40:37.832,,-15,-997,86
12:40:37.842,,-24,-999,84
12:40:37.852,,-31,-1001,83
12:40:37.862,,-25,-999,83
12:40:37.872,,-29,-1007,77
12:40:37.882,,-27,-1018,70
12:40:37.892,,-29,-1023,63
12:40:37.902,,-33,-1017,67
12:40:37.912,,-28,-1002,69
12:40:37.922,,-7,-1008,71
12:40:37.932,,3,-1024,82
12:40:37.942,,0,-1020,75
12:40:37.952,,-51,-1005,63
12:40:37.962,,-35,-1009,71
12:40:37.972,,-14,-1007,66
12:40:37.982,,-19,-1010,70
12:40:37.992,,-22,-1010,80
12:40:38.002,,-37,-1005,78
12:40:38.012,,-37,-1006,79
12:40:38.022,,-32,-1010,76
12:40:38.032,,-22,-1015,74
12:40:38.042,,-24,-1019,72
12:40:38.052,,-35,-1011,74
12:40:38.062,,-40,-1002,79
12:40:38.072,,-31,-1002,81
12:40:38.082,,-34,-1000,76
12:40:38.092,,-32,-999,78
12:40:38.102,,-31,-1010,76
12:40:38.112,,-34,-1011,70
12:40:38.122,,-30,-1007,69
12:40:38.132,,-25,-1006,69
12:40:38.142,,-25,-1018,68
12:40:38.152,,-30,-1022,62
12:40:38.162,,-25,-1016,63
12:40:38.172,,-11,-1013,65
12:40:38.182,,-22,-1014,68
12:40:38.192,,-34,-1011,71
12:40:38.202,,-35,-1007,68
12:40:38.212,,-30,-1014,70
12:40:38.222,,-32,-1013,72
12:40:38.232,,-26,-1009,72
12:40:38.242,,-18,-1005,72
12:40:38.252,,-20,-1009,75
12:40:38.262,,-17,-999,76
12:40:38.272,,-11,-1000,82
12:40:38.282,,-11,-1006,81
12:40:38.292,,-26,-1007,80
12:40:38.302,,-40,-998,83
12:40:38.431,,-17,-1025,62
12:40:38.432,,-17,-1025,62
12:40:38.434,,-17,-1025,62
12:40:38.435,,-17,-1025,62
12:40:38.437,,-17,-1025,62
12:40:38.438,,-19,-1020,57
12:40:38.439,,-19,-1020,57
12:40:38.441,,-19,-1020,57
12:40:38.442,,-19,-1020,57
12:40:38.443,,-19,-1020,57
12:40:38.445,,-19,-1020,57
12:40:38.446,,-19,-1020,57
12:40:38.447,,-21,-1011,62
12:40:38.449,,-21,-1011,62
12:40:38.452,,-21,-1011,62
12:40:38.462,,-25,-1012,66
12:40:38.472,,-25,-1011,65
12:40:38.482,,-24,-1007,68
12:40:38.492,,-28,-1007,63
12:40:38.502,,-32,-1009,64
12:40:38.512,,-24,-1020,60
12:40:38.522,,-33,-1020,59
12:40:38.532,,-36,-1015,63
12:40:38.542,,-33,-1009,63
12:40:38.552,,-37,-1004,63
12:40:38.562,,-41,-998,66
12:40:38.572,,-30,-1003,66
12:40:38.582,,-28,-1011,62
12:40:38.592,,-23,-1017,61
12:40:38.602,,-26,-1019,56
12:40:38.612,,-30,-1016,59
12:40:38.622,,-28,-1011,62
12:40:38.632,,-30,-1009,67
12:40:38.642,,-37,-1001,71
12:40:38.652,,-31,-996,71
12:40:38.662,,-32,-1006,69
12:40:38.672,,-34,-1012,66
12:40:38.682,,-43,-1012,67
12:40:38.692,,-41,-1010,66
12:40:38.702,,-29,-1008,65
12:40:38.712,,-20,-1009,71
12:40:38.722,,-25,-1011,70
12:40:38.732,,-35,-1013,70
12:40:38.742,,-43,-1012,68
12:40:38.752,,-48,-1011,66
12:40:38.762,,-51,-1001,67
12:40:38.772,,-38,-999,69
12:40:38.782,,-23,-1002,71
12:40:38.792,,-13,-1008,68
12:40:38.802,,-13,-1010,63
12:40:38.812,,-9,-1011,62
12:40:38.822,,-11,-1015,59
12:40:38.832,,-19,-1023,56
12:40:38.842,,-25,-1020,57
12:40:38.852,,-26,-1012,59
12:40:38.862,,-20,-1020,61
12:40:38.872,,-29,-1018,62
12:40:38.882,,-33,-1006,64
12:40:38.892,,-31,-1005,69
12:40:38.902,,-29,-1003,72
12:40:38.912,,-17,-1001,73
12:40:38.922,,-11,-1009,76
12:40:38.932,,-19,-1009,72
12:40:38.942,,-26,-1014,68
12:40:38.952,,-30,-1018,66
12:40:38.962,,-37,-1017,70
12:40:38.972,,-35,-1012,68
12:40:38.982,,-35,-1009,70
12:40:38.992,,-41,-1000,74
12:40:39.002,,-42,-996,81
12:40:39.012,,-42,-994,84
12:40:39.022,,-44,-994,82
12:40:39.032,,-49,-1005,77
12:40:39.042,,-55,-1008,72
12:40:39.052,,-51,-1013,71
12:40:39.062,,-61,-1021,61
12:40:39.072,,-75,-1012,55
12:40:39.082,,-65,-1006,60
12:40:39.092,,-37,-1001,58
12:40:39.102,,-2,-1016,64
12:40:39.112,,-3,-1018,61
12:40:39.122,,-1,-1020,56
12:40:39.132,,-3,-1029,55
12:40:39.142,,-1,-1030,48
12:40:39.152,,13,-1019,56
12:40:39.162,,8,-1018,64
12:40:39.172,,2,-1017,65
12:40:39.182,,0,-1019,71
12:40:39.192,,-7,-1012,74
12:40:39.202,,4,-1002,78
12:40:39.212,,5,-1000,85
12:40:39.222,,-9,-1003,90
12:40:39.232,,-17,-1001,89
12:40:39.242,,-13,-996,85
12:40:39.252,,-7,-1001,91
12:40:39.262,,-14,-1001,91
12:40:39.272,,-6,-999,92
12:40:39.282,,-5,-1004,91
12:40:39.292,,-15,-995,94
12:40:39.302,,-15,-989,96
12:40:39.312,,-17,-997,95
12:40:39.322,,-18,-1003,95
12:40:39.332,,-18,-995,92
12:40:39.342,,-27,-989,92
12:40:39.352,,-22,-993,91
12:40:39.362,,-14,-1007,87
12:40:39.372,,-17,-1008,84
12:40:39.382,,-20,-1001,83
12:40:39.392,,-19,-1001,79
12:40:39.402,,-26,-1008,73
12:40:39.412,,-16,-1013,68
12:40:39.422,,-15,-1016,70
12:40:39.432,,-23,-1023,66
12:40:39.442,,-33,-1020,65
12:40:39.452,,-30,-1011,65
12:40:39.462,,-31,-1006,71
12:40:39.472,,-35,-1008,70
12:40:39.482,,-35,-1011,70
12:40:39.492,,-30,-1011,68
12:40:39.502,,-23,-1014,63
12:40:39.512,,-28,-1013,63
12:40:39.522,,-31,-1007,63
12:40:39.532,,-22,-1021,63
12:40:39.542,,-17,-1019,59
12:40:39.552,,-19,-1012,65
12:40:39.562,,-18,-1012,68
12:40:39.572,,-14,-1006,67
12:40:39.582,,-14,-1005,73
12:40:39.592,,-20,-1014,74
12:40:39.602,,-19,-1018,68
12:40:39.612,,-15,-1010,67
12:40:39.622,,-8,-1006,70
12:40:39.632,,-12,-1009,75
12:40:39.642,,-13,-1007,74
12:40:39.652,,-21,-1013,74
12:40:39.662,,-21,-1005,76
12:40:39.672,,-24,-1007,78
12:40:39.682,,-32,-1007,76
12:40:39.692,,-30,-1002,78
12:40:39.702,,-33,-1003,81
12:40:39.712,,-30,-1004,79
12:40:39.722,,-32,-1000,76
12:40:39.732,,-38,-998,76
12:40:39.742,,-39,-1010,77
12:40:39.752,,-37,-1005,72
12:40:39.762,,-31,-1005,70
12:40:39.772,,-23,-1013,71
12:40:39.782,,-15,-1014,66
12:40:39.792,,-28,-1009,69
12:40:39.802,,-24,-1011,69
12:40:39.812,,-19,-1009,66
12:40:39.822,,-19,-1001,66
12:40:39.832,,-20,-998,73
12:40:39.842,,-26,-988,76
12:40:39.966,,0,-1003,73
12:40:39.967,,0,-1003,73
12:40:39.969,,-9,-1004,69
12:40:39.970,,-9,-1004,69
12:40:39.971,,-9,-1004,69
12:40:39.973,,-9,-1004,69
12:40:39.974,,-9,-1004,69
12:40:39.975,,-9,-1004,69
12:40:39.977,,-9,-1004,69
12:40:39.978,,-26,-997,65
12:40:39.979,,-26,-997,65
12:40:39.981,,-26,-997,65
12:40:39.982,,-26,-997,65
12:40:39.984,,-26,-997,65
12:40:39.992,,-35,-1002,63
12:40:40.002,,-39,-1004,61
12:40:40.012,,-33,-1003,61
12:40:40.022,,-39,-1006,65
12:40:40.032,,-39,-1009,66
12:40:40.042,,-32,-1007,72
12:40:40.052,,-24,-1006,72
12:40:40.062,,-18,-1009,68
12:40:40.072,,-29,-1008,69
12:40:40.082,,-42,-1011,73
12:40:40.092,,-29,-1013,76
12:40:40.102,,-24,-1010,73
12:40:40.112,,-37,-1001,77
12:40:40.122,,-35,-1003,79
12:40:40.132,,-31,-1010,75
12:40:40.142,,-24,-1006,76
12:40:40.152,,-22,-1002,80
12:40:40.162,,-22,-1004,80
12:40:40.172,,-30,-1001,87
12:40:40.182,,-20,-1002,81
12:40:40.192,,-28,-1006,82
12:40:40.202,,-33,-1009,77
12:40:40.212,,-22,-1002,74
12:40:40.222,,-12,-1003,77
12:40:40.232,,-25,-1000,77
12:40:40.242,,-26,-1000,75
12:40:40.252,,-18,-1007,71
12:40:40.262,,-10,-1016,64
12:40:40.272,,-15,-1022,65
12:40:40.282,,-23,-1020,62
12:40:40.292,,-32,-1017,63
12:40:40.302,,-26,-1001,72
12:40:40.312,,-16,-1006,76
12:40:40.322,,-20,-1014,68
12:40:40.332,,-23,-1012,59
12:40:40.342,,-22,-1016,61
12:40:40.352,,-30,-1024,63
12:40:40.362,,-31,-1021,62
12:40:40.372,,-33,-1016,67
12:40:40.382,,-42,-1013,70
12:40:40.392,,-48,-1008,70
12:40:40.402,,-43,-1003,76
12:40:40.412,,-38,-1000,79
12:40:40.422,,-29,-995,80
12:40:40.432,,-34,-1002,78
12:40:40.442,,-30,-1003,76
12:40:40.452,,-23,-1007,77
12:40:40.462,,-28,-1009,76
12:40:40.472,,-28,-1012,78
12:40:40.482,,-30,-1012,77
12:40:40.492,,-27,-1005,75
12:40:40.502,,-29,-1009,76
12:40:40.512,,-26,-1005,75
12:40:40.522,,-25,-997,76
12:40:40.532,,-24,-992,77
12:40:40.542,,-24,-1005,76
12:40:40.552,,-15,-1015,70
12:40:40.562,,-14,-1017,67
12:40:40.572,,-21,-1022,64
12:40:40.582,,-23,-1018,62
12:40:40.592,,-24,-1010,66
12:40:40.602,,-28,-1009,70
12:40:40.612,,-29,-1003,71
12:40:40.622,,-32,-997,71
12:40:40.632,,-36,-1006,71
12:40:40.642,,-26,-1009,70
12:40:40.652,,-26,-1009,71
12:40:40.662,,-29,-1011,71
12:40:40.672,,-35,-1007,69
12:40:40.682,,-39,-1010,67
12:40:40.692,,-29,-1010,70
12:40:40.702,,-31,-1013,69
12:40:40.712,,-33,-1014,69
12:40:40.722,,-23,-1005,70
12:40:40.732,,-27,-1003,71
12:40:40.742,,-33,-1002,69
12:40:40.752,,-23,-1001,70
12:40:40.762,,-11,-1007,71
12:40:40.772,,-11,-1011,71
12:40:40.782,,-17,-1013,69
12:40:40.792,,-23,-1019,67
12:40:40.802,,-32,-1012,63
12:40:40.812,,-35,-1008,62
12:40:40.822,,-32,-1011,66
12:40:40.832,,-29,-1006,70
12:40:40.842,,-31,-1006,68
12:40:40.852,,-28,-1005,68
12:40:40.862,,-20,-998,68
12:40:40.872,,-14,-998,71
12:40:40.882,,-20,-1003,70
12:40:40.892,,-34,-1006,68
12:40:40.902,,-38,-1003,67
12:40:40.912,,-41,-1014,69
12:40:40.922,,-38,-1019,65
12:40:40.932,,-37,-1015,66
12:40:40.942,,-29,-1011,73
12:40:40.952,,-21,-1009,71
12:40:40.962,,-35,-1005,70
12:40:40.972,,-31,-1005,67
12:40:40.982,,-22,-1008,63
12:40:40.992,,-22,-1016,60
12:40:41.002,,-27,-1025,55
12:40:41.012,,-25,-1024,54
12:40:41.022,,-25,-1019,56
12:40:41.032,,-29,-1015,57
12:40:41.042,,-36,-1012,63
12:40:41.052,,-26,-1009,66
12:40:41.062,,-31,-1000,66
12:40:41.072,,-38,-1003,61
12:40:41.082,,-25,-1009,65
12:40:41.092,,-15,-1016,66
12:40:41.102,,-27,-1011,65
12:40:41.112,,-43,-1011,64
12:40:41.122,,-42,-1015,63
12:40:41.132,,-35,-1017,67
12:40:41.142,,-34,-1016,68
12:40:41.152,,-43,-1007,72
12:40:41.162,,-48,-1000,69
12:40:41.172,,-37,-989,77
12:40:41.182,,-23,-988,84
12:40:41.192,,-11,-996,83
12:40:41.202,,-27,-1009,73
12:40:41.212,,-21,-1013,69
12:40:41.222,,-17,-1012,66
12:40:41.232,,-11,-1006,70
12:40:41.242,,-15,-1006,71
12:40:41.252,,-27,-1009,72
12:40:41.262,,-41,-1010,68
12:40:41.272,,-44,-1005,62
12:40:41.282,,-33,-1003,64
12:40:41.292,,-19,-1006,64
12:40:41.302,,-23,-1006,68
12:40:41.312,,-32,-1013,65
12:40:41.322,,-43,-1023,54
12:40:41.332,,-24,-1020,58
12:40:41.342,,-27,-1015,61
12:40:41.352,,-33,-1013,62
12:40:41.362,,-33,-1015,64
12:40:41.492,,-24,-1004,69
12:40:41.493,,-24,-1004,69
12:40:41.495,,-24,-1004,69
12:40:41.496,,-24,-1004,69
12:40:41.498,,-24,-1004,69
12:40:41.499,,-22,-1007,65
12:40:41.500,,-22,-1007,65
12:40:41.502,,-22,-1007,65
12:40:41.503,,-22,-1007,65
12:40:41.504,,-22,-1007,65
12:40:41.506,,-22,-1007,65
12:40:41.507,,-22,-1007,65
12:40:41.508,,-15,-1003,64
12:40:41.510,,-15,-1003,64
12:40:41.512,,-15,-1003,64
12:40:41.522,,0,-1009,65
12:40:41.532,,-3,-1014,62
12:40:41.542,,-18,-1012,60
12:40:41.552,,-23,-1007,58
12:40:41.562,,-22,-1013,59
12:40:41.572,,-18,-1014,60
12:40:41.582,,-17,-1021,54
12:40:41.592,,-27,-1020,55
12:40:41.602,,-42,-1008,57
12:40:41.612,,-49,-1009,58
12:40:41.622,,-41,-1006,60
12:40:41.632,,-42,-1009,63
12:40:41.642,,-40,-1011,65
12:40:41.652,,-35,-1007,62
12:40:41.662,,-29,-1005,62
12:40:41.672,,-27,-1005,66
12:40:41.682,,-31,-1004,63
12:40:41.692,,-34,-1001,62
12:40:41.702,,-31,-1003,65
12:40:41.712,,-33,-1009,59
12:40:41.722,,-26,-1005,60
12:40:41.732,,-11,-1016,59
12:40:41.742,,-6,-1029,52
12:40:41.752,,-19,-1016,53
12:40:41.762,,-24,-1010,56
12:40:41.772,,-32,-1013,54
12:40:41.782,,-30,-1010,58
12:40:41.792,,-19,-1021,63
12:40:41.802,,-27,-1019,58
12:40:41.812,,-26,-1004,59
12:40:41.822,,-21,-1001,65
12:40:41.832,,-16,-1002,62
12:40:41.842,,-18,-1011,65
12:40:41.852,,-34,-1017,59
12:40:41.862,,-31,-1014,62
12:40:41.872,,-22,-1004,66
12:40:41.882,,-32,-999,73
12:40:41.892,,-41,-999,72
12:40:41.902,,-47,-994,72
12:40:41.912,,-38,-999,74
12:40:41.922,,-34,-1022,68
12:40:41.932,,-40,-1016,64
12:40:41.942,,-42,-1004,65
12:40:41.952,,-36,-1002,67
12:40:41.962,,-19,-1004,71
12:40:41.972,,-33,-1019,63
12:40:41.982,,-38,-1005,59
12:40:41.992,,-30,-1000,60
12:40:42.002,,-12,-1009,59
12:40:42.012,,-4,-1015,56
12:40:42.022,,-10,-1016,56
12:40:42.032,,-21,-1020,55
12:40:42.042,,-19,-1015,54
12:40:42.052,,-20,-1013,56
12:40:42.062,,-28,-1006,58
12:40:42.072,,-32,-1008,59
12:40:42.082,,-32,-1014,55
12:40:42.092,,-32,-1013,55
12:40:42.102,,-19,-1016,56
12:40:42.112,,-28,-1017,58
12:40:42.122,,-43,-1008,58
12:40:42.132,,-33,-1006,61
12:40:42.142,,-34,-1007,60
12:40:42.152,,-36,-1004,60
12:40:42.162,,-34,-1004,60
12:40:42.172,,-32,-1007,60
12:40:42.182,,-27,-1016,61
12:40:42.192,,-36,-1012,59
12:40:42.202,,-36,-1011,59
12:40:42.212,,-31,-1018,59
12:40:42.222,,-38,-1019,60
12:40:42.232,,-31,-998,67
12:40:42.242,,-20,-1003,69
12:40:42.252,,-26,-1004,70
12:40:42.262,,-36,-1002,70
12:40:42.272,,-34,-996,66
12:40:42.282,,-29,-1003,69
12:40:42.292,,-24,-1006,68
12:40:42.302,,-23,-1005,70
12:40:42.312,,-27,-1015,71
12:40:42.322,,-37,-1020,64
12:40:42.332,,-36,-1007,63
12:40:42.342,,-32,-1008,68
12:40:42.352,,-31,-1008,70
12:40:42.362,,-24,-997,70
12:40:42.372,,-32,-1005,70
12:40:42.382,,-31,-1009,65
12:40:42.392,,-30,-1004,62
12:40:42.402,,-27,-1006,64
12:40:42.412,,-31,-1012,63
12:40:42.422,,-26,-1016,59
12:40:42.432,,-33,-1014,57
12:40:42.442,,-36,-1007,56
12:40:42.452,,-19,-1006,54
12:40:42.462,,-14,-1005,55
12:40:42.472,,-16,-1010,58
12:40:42.482,,-16,-1019,51
12:40:42.492,,-19,-1021,48
12:40:42.502,,-14,-1021,48
12:40:42.512,,-11,-1019,55
12:40:42.522,,-33,-1015,57
12:40:42.532,,-52,-1015,49
12:40:42.542,,-35,-1025,45
12:40:42.552,,-23,-1025,49
12:40:42.562,,-21,-1018,51
12:40:42.572,,-18,-1009,55
12:40:42.582,,-23,-1003,62
12:40:42.592,,-34,-1005,67
12:40:42.602,,-44,-1007,70
12:40:42.612,,-52,-989,73
12:40:42.622,,-50,-995,78
12:40:42.632,,-51,-1000,78
12:40:42.642,,-49,-999,75
12:40:42.652,,-38,-1004,82
12:40:42.662,,-31,-999,82
12:40:42.672,,-40,-992,85
12:40:42.682,,-50,-987,85
12:40:42.692,,-53,-988,83
12:40:42.702,,-43,-991,82
12:40:42.712,,-36,-995,78
12:40:42.722,,-24,-1009,67
12:40:42.732,,-5,-1029,58
12:40:42.742,,-11,-1037,47
12:40:42.752,,-10,-1031,51
12:40:42.762,,-7,-1019,54
12:40:42.772,,8,-1015,58
12:40:42.782,,7,-1011,56
12:40:42.792,,0,-1017,57
12:40:42.802,,-2,-1020,52
12:40:42.812,,-4,-1020,52
12:40:42.822,,-24,-1019,56
12:40:42.832,,-33,-1016,55
12:40:42.842,,-40,-1005,62
12:40:42.852,,-45,-1006,65
12:40:42.862,,-49,-1013,62
12:40:42.872,,-25,-1013,63
12:40:42.882,,-33,-1012,67
12:40:42.892,,-46,-1009,68
12:40:43.016,,-32,-1008,73
12:40:43.017,,-32,-1008,73
12:40:43.019,,-32,-1008,73
12:40:43.020,,-28,-1004,71
12:40:43.021,,-28,-1004,71
12:40:43.023,,-28,-1004,71
12:40:43.024,,-28,-1004,71
12:40:43.026,,-28,-1004,71
12:40:43.027,,-28,-1004,71
12:40:43.028,,-28,-1004,71
12:40:43.030,,-19,-996,73
12:40:43.031,,-19,-996,73
12:40:43.032,,-19,-996,73
12:40:43.034,,-19,-996,73
12:40:43.042,,-12,-995,75
12:40:43.052,,-5,-1001,72
12:40:43.062,,-10,-1014,69
12:40:43.072,,-12,-1012,64
12:40:43.082,,-2,-1012,61
12:40:43.092,,-5,-1010,65
12:40:43.102,,-19,-1007,63
12:40:43.112,,-28,-1006,58
12:40:43.122,,-30,-1015,55
12:40:43.132,,-28,-1007,55
12:40:43.142,,-29,-1005,58
12:40:43.152,,-30,-1012,55
12:40:43.162,,-21,-1018,57
12:40:43.172,,-9,-1014,49
12:40:43.182,,-5,-1013,51
12:40:43.192,,-11,-1021,58
12:40:43.202,,-25,-1020,53
12:40:43.212,,-24,-1011,51
12:40:43.222,,-31,-1001,54
12:40:43.232,,-32,-1012,55
12:40:43.242,,-22,-1013,52
12:40:43.252,,-14,-1017,50
12:40:43.262,,-13,-1018,55
12:40:43.272,,-7,-1013,56
12:40:43.282,,-10,-1010,58
12:40:43.292,,-11,-1006,61
12:40:43.302,,-8,-998,66
12:40:43.312,,-14,-1000,66
12:40:43.322,,-22,-1004,65
12:40:43.332,,-20,-1002,65
12:40:43.342,,-13,-1006,66
12:40:43.352,,-9,-1008,68
12:40:43.362,,-7,-1012,67
12:40:43.372,,-14,-1014,70
12:40:43.382,,-21,-1007,67
12:40:43.392,,-21,-998,70
12:40:43.402,,-25,-1000,72
12:40:43.412,,-29,-1000,70
12:40:43.422,,-26,-993,68
12:40:43.432,,-26,-997,64
12:40:43.442,,-19,-1007,60
12:40:43.452,,-18,-1015,57
12:40:43.462,,-13,-1016,54
12:40:43.472,,-6,-1016,57
12:40:43.482,,0,-1020,57
12:40:43.492,,-2,-1026,52
12:40:43.502,,-23,-1011,56
12:40:43.512,,-17,-1005,52
12:40:43.522,,-7,-1006,51
12:40:43.532,,0,-1007,55
12:40:43.542,,-2,-1014,53
12:40:43.552,,-4,-1017,51
12:40:43.562,,-7,-1011,50
12:40:43.572,,0,-1016,50
12:40:43.582,,-2,-1015,42
12:40:43.592,,-23,-1015,46
12:40:43.602,,-30,-1014,46
12:40:43.612,,-18,-1014,44
12:40:43.622,,-9,-1019,45
12:40:43.632,,-15,-1019,48
12:40:43.642,,-16,-1003,48
12:40:43.651,,-12,-1005,54
12:40:43.662,,-18,-1014,58
12:40:43.672,,-18,-1011,51
12:40:43.681,,-6,-1005,51
12:40:43.692,,-12,-1001,52
12:40:43.702,,-20,-999,59
12:40:43.711,,-16,-998,60
12:40:43.722,,-16,-1021,55
12:40:43.732,,-28,-1024,49
12:40:43.741,,-28,-1014,44
12:40:43.752,,-20,-1016,49
12:40:43.762,,-24,-1004,51
12:40:43.771,,-10,-1007,59
12:40:43.782,,-10,-1011,55
12:40:43.792,,-14,-1000,48
12:40:43.801,,-13,-1004,52
12:40:43.812,,-24,-1008,53
12:40:43.821,,-27,-1008,48
12:40:43.831,,-24,-1019,44
12:40:43.842,,-29,-1022,46
12:40:43.851,,-29,-1013,46
12:40:43.861,,-15,-1004,46
12:40:43.872,,-13,-1006,49
12:40:43.881,,-17,-1006,49
12:40:43.891,,-18,-1003,48
12:40:43.902,,-12,-1014,46
12:40:43.911,,-19,-1016,43
12:40:43.921,,-26,-1020,42
12:40:43.932,,-36,-1016,44
12:40:43.941,,-35,-1009,43
12:40:43.951,,-26,-1008,45
12:40:43.961,,-22,-1010,52
12:40:43.971,,-20,-1001,52
12:40:43.981,,-12,-995,50
12:40:43.991,,-14,-997,53
12:40:44.001,,-15,-1009,50
12:40:44.011,,-14,-1016,41
12:40:44.021,,-16,-1028,37
12:40:44.031,,-28,-1032,40
12:40:44.041,,-24,-1020,38
12:40:44.051,,-22,-1003,43
12:40:44.061,,-18,-997,54
12:40:44.071,,-16,-1003,57
12:40:44.081,,-25,-1009,52
12:40:44.091,,-27,-1005,49
12:40:44.101,,-22,-1001,50
12:40:44.111,,-18,-1009,52
12:40:44.121,,-24,-1006,48
12:40:44.131,,-28,-1015,45
12:40:44.141,,-35,-1032,49
12:40:44.151,,-27,-1005,46
12:40:44.161,,-32,-1003,49
12:40:44.171,,-37,-1006,52
12:40:44.181,,-34,-996,54
12:40:44.191,,-31,-993,53
12:40:44.201,,-32,-1000,55
12:40:44.211,,-32,-997,49
12:40:44.221,,-20,-1008,51
12:40:44.231,,-20,-1025,50
12:40:44.241,,-32,-1023,40
12:40:44.251,,-36,-1011,38
12:40:44.261,,-39,-1013,46
12:40:44.271,,-45,-1008,46
12:40:44.281,,-35,-1008,47
12:40:44.291,,-28,-1012,45
12:40:44.301,,-34,-1011,44
12:40:44.311,,-24,-1001,40
12:40:44.321,,-13,-1003,44
12:40:44.331,,-25,-1009,43
12:40:44.341,,-34,-1009,45
12:40:44.351,,-29,-1015,48
12:40:44.361,,-41,-1018,45
12:40:44.371,,-49,-1009,43
12:40:44.381,,-41,-1015,42
12:40:44.391,,-37,-1025,34
12:40:44.401,,-37,-1014,31
12:40:44.411,,-23,-1001,49
12:40:44.421,,-16,-996,49
12:40:44.551,,-30,-1023,38
12:40:44.552,,-30,-1023,38
12:40:44.554,,-30,-1023,38
12:40:44.555,,-30,-1023,38
12:40:44.556,,-30,-1023,38
12:40:44.558,,-30,-1023,38
12:40:44.559,,-30,-1023,38
12:40:44.561,,-20,-1016,42
12:40:44.562,,-20,-1016,42
12:40:44.563,,-20,-1016,42
12:40:44.565,,-20,-1016,42
12:40:44.566,,-20,-1016,42
12:40:44.567,,-20,-1016,42
12:40:44.569,,-20,-1016,52
12:40:44.571,,-6,-1006,52
12:40:44.581,,-7,-1005,59
12:40:44.591,,-25,-1010,60
12:40:44.601,,-31,-1008,60
12:40:44.611,,-26,-1006,63
12:40:44.621,,-21,-1007,56
12:40:44.631,,-18,-1003,59
12:40:44.641,,-23,-996,65
12:40:44.651,,-30,-999,67
12:40:44.661,,-33,-1007,53
12:40:44.671,,-35,-1009,49
12:40:44.681,,-40,-1003,44
12:40:44.691,,-39,-993,40
12:40:44.701,,-31,-991,37
12:40:44.711,,-34,-992,36
12:40:44.721,,-38,-996,27
12:40:44.731,,-39,-999,19
12:40:44.741,,-43,-1001,14
12:40:44.751,,-46,-994,13
12:40:44.761,,-59,-1001,14
12:40:44.771,,-68,-1006,5
12:40:44.781,,-58,-1010,3
12:40:44.791,,-58,-1014,4
12:40:44.801,,-59,-1041,2
12:40:44.811,,-67,-1046,-5
12:40:44.821,,-76,-1045,-6
12:40:44.831,,-91,-1039,-6
12:40:44.841,,-95,-1029,1
12:40:44.851,,-78,-1034,12
12:40:44.861,,-61,-1036,23
12:40:44.871,,-51,-1020,32
12:40:44.881,,-37,-1013,39
12:40:44.891,,-29,-1016,36
12:40:44.901,,-26,-1019,30
12:40:44.911,,-20,-1021,35
12:40:44.921,,-9,-1006,48
12:40:44.931,,1,-1001,56
12:40:44.941,,-1,-998,60
12:40:44.951,,-4,-989,69
12:40:44.961,,3,-989,70
12:40:44.971,,10,-1000,71
12:40:44.981,,6,-1001,65
12:40:44.991,,6,-1001,69
12:40:45.001,,2,-1000,70
12:40:45.011,,1,-1013,68
12:40:45.021,,-8,-1022,60
12:40:45.031,,-17,-1023,52
12:40:45.041,,-27,-1019,46
12:40:45.051,,-37,-1010,48
12:40:45.061,,-34,-1017,45
12:40:45.071,,-38,-1014,44
12:40:45.081,,-43,-1012,46
12:40:45.091,,-38,-1003,48
12:40:45.101,,-24,-1011,64
12:40:45.111,,-29,-996,64
12:40:45.121,,-26,-989,66
12:40:45.131,,-25,-988,69
12:40:45.141,,-24,-990,64
12:40:45.151,,-15,-997,61
12:40:45.161,,-11,-1014,59
12:40:45.171,,-10,-1023,61
12:40:45.181,,-21,-1005,39
12:40:45.191,,-23,-1000,79
12:40:45.201,,-16,-988,85
12:40:45.211,,-7,-973,65
12:40:45.221,,-14,-980,67
12:40:45.231,,-33,-996,70
12:40:45.241,,-40,-1010,51
12:40:45.251,,-31,-1024,41
12:40:45.261,,-20,-1027,39
12:40:45.271,,-24,-1019,38
12:40:45.281,,-34,-1013,40
12:40:45.291,,-35,-1002,41
12:40:45.301,,-18,-1006,41
12:40:45.311,,-19,-1005,38
12:40:45.321,,-17,-1010,33
12:40:45.331,,-11,-1016,27
12:40:45.341,,-5,-1021,26
12:40:45.351,,-13,-1021,24
12:40:45.361,,-26,-1021,27
12:40:45.371,,-40,-1019,29
12:40:45.381,,-38,-1018,26
12:40:45.391,,-26,-1031,33
12:40:45.401,,-28,-1028,36
12:40:45.411,,-33,-1012,41
12:40:45.421,,-36,-1001,45
12:40:45.431,,-34,-1002,46
12:40:45.441,,-1,-1025,43
12:40:45.451,,-6,-1021,22
12:40:45.461,,0,-1024,31
12:40:45.471,,3,-1021,26
12:40:45.481,,0,-1012,25
12:40:45.491,,4,-1002,29
12:40:45.501,,7,-992,39
12:40:45.511,,13,-993,49
12:40:45.521,,19,-1000,60
12:40:45.531,,18,-1002,59
12:40:45.541,,14,-1004,60
12:40:45.551,,8,-1004,66
12:40:45.561,,8,-995,63
12:40:45.571,,11,-995,60
12:40:45.581,,14,-997,53
12:40:45.591,,17,-1002,48
12:40:45.601,,13,-1004,46
12:40:45.611,,9,-997,42
12:40:45.621,,3,-984,42
12:40:45.631,,-5,-984,34
12:40:45.641,,-14,-992,24
12:40:45.651,,-16,-1010,12
12:40:45.661,,-12,-1030,1
12:40:45.671,,-11,-1028,-17
12:40:45.681,,-12,-1021,-15
12:40:45.691,,-8,-1014,-11
12:40:45.701,,2,-1008,-10
12:40:45.711,,5,-1007,-12
12:40:45.721,,8,-1018,-10
12:40:45.731,,-7,-1016,-11
12:40:45.741,,-21,-1011,-11
12:40:45.751,,-31,-1022,-13
12:40:45.761,,-83,-1036,-46
12:40:45.771,,-109,-1071,-33
12:40:45.781,,-53,-1056,-72
12:40:45.791,,-38,-1027,-55
12:40:45.801,,-23,-1032,-26
12:40:45.811,,-6,-1055,-43
12:40:45.821,,45,-1022,-52
12:40:45.831,,50,-999,-38
12:40:45.841,,2,-989,-15
12:40:45.851,,-2,-983,-24
12:40:45.861,,18,-999,-19
12:40:45.871,,20,-1014,-25
12:40:45.881,,38,-1024,-21
12:40:45.891,,56,-1041,-29
12:40:45.901,,50,-1036,-49
12:40:45.911,,29,-1033,-42
12:40:45.921,,0,-1044,-8
12:40:45.931,,-26,-1031,-14
12:40:45.941,,-29,-1015,7
12:40:45.951,,-18,-984,42
12:40:45.961,,-21,-963,62
12:40:45.971,,-154,-897,43
12:40:46.095,,5,-997,-15
12:40:46.097,,5,-997,-15
12:40:46.098,,5,-997,-15
12:40:46.099,,5,-1019,-19
12:40:46.101,,8,-1019,-19
12:40:46.102,,8,-1019,-19
12:40:46.104,,8,-1019,-19
12:40:46.105,,8,-1019,-19
12:40:46.106,,8,-1019,-19
12:40:46.108,,8,-1019,-19
12:40:46.109,,18,-1032,-26
12:40:46.110,,18,-1032,-26
12:40:46.112,,18,-1032,-26
12:40:46.113,,18,-1032,-26
12:40:46.121,,23,-1049,-24
12:40:46.131,,25,-1032,-29
12:40:46.141,,8,-1007,-9
12:40:46.151,,-22,-1012,6
12:40:46.161,,-32,-1013,7
12:40:46.171,,-12,-1010,-9
12:40:46.181,,15,-1003,-11
12:40:46.191,,17,-1008,-16
12:40:46.201,,10,-1018,-22
12:40:46.211,,-90,-958,-6
12:40:46.221,,-70,-892,25
12:40:46.231,,-7,-1006,74
12:40:46.241,,33,-1040,22
12:40:46.251,,25,-996,16
12:40:46.261,,30,-999,21
12:40:46.271,,13,-1027,13
12:40:46.281,,55,-1054,-2
12:40:46.291,,66,-1076,-20
12:40:46.301,,34,-1074,-48
12:40:46.311,,38,-1069,-79
12:40:46.321,,31,-1067,-87
12:40:46.331,,21,-1051,-60
12:40:46.341,,45,-1010,-45
12:40:46.351,,47,-1009,-31
12:40:46.361,,16,-1009,-27
12:40:46.371,,5,-1007,-23
12:40:46.381,,-7,-1021,-23
12:40:46.391,,-4,-1028,-33
12:40:46.401,,0,-1029,-30
12:40:46.411,,-4,-1033,-30
12:40:46.421,,0,-1033,-41
12:40:46.431,,4,-1040,-45
12:40:46.441,,0,-1023,-39
12:40:46.451,,-5,-1001,-22
12:40:46.461,,-9,-996,-32
12:40:46.471,,-1,-1003,-28
12:40:46.481,,-2,-1007,-30
12:40:46.491,,-20,-1003,-33
12:40:46.501,,-19,-1003,3
12:40:46.511,,30,-1016,61
12:40:46.521,,73,-1038,86
12:40:46.531,,45,-1038,63
12:40:46.541,,40,-1015,-64
12:40:46.551,,18,-1008,-167
12:40:46.561,,-8,-1012,-213
12:40:46.571,,-18,-999,-203
12:40:46.581,,-25,-995,-168
12:40:46.591,,14,-1035,32
12:40:46.601,,40,-1028,-20
12:40:46.611,,-3,-1044,-56
12:40:46.621,,3,-1047,-78
12:40:46.631,,10,-1034,-121
12:40:46.641,,5,-1023,-135
12:40:46.651,,7,-1004,-170
12:40:46.661,,-3,-1002,-184
12:40:46.671,,-13,-974,-168
12:40:46.681,,-1,-946,-150
12:40:46.691,,-1,-953,-136
12:40:46.701,,-5,-947,-152
12:40:46.711,,-29,-934,-152
12:40:46.721,,-15,-956,-183
12:40:46.731,,-15,-981,-197
12:40:46.741,,-4,-1006,-227
12:40:46.751,,-1,-1006,-247
12:40:46.761,,0,-992,-278
12:40:46.771,,-2,-968,-302
12:40:46.781,,0,-926,-307
12:40:46.791,,-4,-894,-321
12:40:46.801,,1,-873,-330
12:40:46.811,,-3,-868,-332
12:40:46.821,,-17,-900,-352
12:40:46.831,,-14,-920,-327
12:40:46.841,,-10,-926,-344
12:40:46.851,,14,-920,-335
12:40:46.861,,5,-912,-336
12:40:46.871,,12,-908,-367
12:40:46.881,,21,-896,-399
12:40:46.891,,16,-889,-438
12:40:46.901,,18,-877,-480
12:40:46.911,,28,-862,-503
12:40:46.921,,23,-847,-537
12:40:46.931,,9,-839,-569
12:40:46.941,,5,-825,-563
12:40:46.951,,13,-800,-543
12:40:46.961,,33,-787,-568
12:40:46.971,,57,-794,-596
12:40:46.981,,19,-793,-643
12:40:46.991,,27,-761,-668
12:40:47.001,,30,-725,-690
12:40:47.011,,31,-692,-701
12:40:47.021,,33,-682,-710
12:40:47.031,,30,-698,-722
12:40:47.041,,47,-701,-715
12:40:47.051,,50,-690,-710
12:40:47.061,,43,-682,-711
12:40:47.071,,44,-674,-705
12:40:47.081,,49,-669,-712
12:40:47.091,,49,-665,-717
12:40:47.101,,45,-655,-724
12:40:47.111,,42,-599,-746
12:40:47.121,,32,-582,-764
12:40:47.131,,32,-583,-777
12:40:47.141,,31,-581,-784
12:40:47.151,,37,-580,-798
12:40:47.161,,38,-593,-795
12:40:47.171,,34,-609,-808
12:40:47.181,,35,-621,-808
12:40:47.191,,32,-611,-794
12:40:47.201,,20,-587,-785
12:40:47.211,,21,-549,-788
12:40:47.221,,31,-505,-777
12:40:47.231,,25,-460,-817
12:40:47.241,,-5,-457,-848
12:40:47.251,,-5,-460,-865
12:40:47.261,,9,-449,-866
12:40:47.271,,36,-452,-855
12:40:47.281,,48,-474,-861
12:40:47.291,,53,-494,-878
12:40:47.301,,58,-507,-893
12:40:47.311,,60,-502,-899
12:40:47.321,,70,-476,-906
12:40:47.331,,67,-443,-904
12:40:47.341,,68,-417,-920
12:40:47.351,,66,-392,-941
12:40:47.361,,58,-378,-961
12:40:47.371,,63,-368,-964
12:40:47.381,,83,-359,-981
12:40:47.391,,96,-345,-987
12:40:47.401,,90,-335,-1014
12:40:47.411,,85,-330,-1034
12:40:47.421,,80,-328,-1045
12:40:47.431,,69,-334,-1043
12:40:47.441,,71,-333,-1012
12:40:47.451,,77,-319,-995
12:40:47.461,,76,-301,-986
12:40:47.471,,77,-280,-986
12:40:47.481,,81,-269,-985
12:40:47.491,,73,-286,-980
12:40:47.501,,64,-295,-977
12:40:47.630,,43,-204,-964
12:40:47.631,,42,-187,-970
12:40:47.632,,42,-187,-970
12:40:47.634,,42,-187,-970
12:40:47.635,,42,-187,-970
12:40:47.637,,42,-187,-970
12:40:47.638,,42,-187,-970
12:40:47.639,,42,-175,-974
12:40:47.641,,59,-175,-974
12:40:47.642,,59,-175,-974
12:40:47.643,,59,-175,-974
12:40:47.645,,59,-175,-974
12:40:47.646,,59,-175,-974
12:40:47.647,,59,-175,-974
12:40:47.651,,62,-181,-983
12:40:47.661,,59,-196,-1004
12:40:47.671,,61,-200,-1009
12:40:47.681,,63,-194,-1002
12:40:47.691,,69,-187,-988
12:40:47.701,,80,-199,-986
12:40:47.711,,68,-226,-984
12:40:47.721,,55,-233,-992
12:40:47.731,,43,-211,-986
12:40:47.741,,33,-180,-989
12:40:47.751,,34,-144,-986
12:40:47.761,,33,-144,-974
12:40:47.771,,34,-145,-967
12:40:47.781,,35,-144,-963
12:40:47.791,,33,-143,-964
12:40:47.801,,45,-145,-990
12:40:47.811,,42,-160,-1001
12:40:47.821,,46,-170,-1003
12:40:47.831,,55,-171,-998
12:40:47.841,,62,-170,-986
12:40:47.851,,56,-163,-976
12:40:47.861,,53,-162,-970
12:40:47.871,,45,-161,-965
12:40:47.881,,34,-142,-965
12:40:47.891,,41,-135,-982
12:40:47.901,,43,-133,-997
12:40:47.911,,54,-113,-1010
12:40:47.921,,61,-107,-1022
12:40:47.931,,54,-112,-1031
12:40:47.941,,40,-113,-1022
12:40:47.951,,28,-107,-1004
12:40:47.961,,26,-100,-990
12:40:47.971,,31,-100,-987
12:40:47.981,,41,-105,-978
12:40:47.991,,54,-113,-974
12:40:48.001,,46,-130,-997
12:40:48.011,,50,-124,-1008
12:40:48.021,,48,-125,-1008
12:40:48.031,,47,-125,-1014
12:40:48.041,,44,-108,-1018
12:40:48.051,,42,-97,-1014
12:40:48.061,,34,-80,-1020
12:40:48.071,,34,-72,-1025
12:40:48.081,,31,-76,-1027
12:40:48.091,,23,-88,-1028
12:40:48.101,,14,-97,-1022
12:40:48.111,,13,-88,-1009
12:40:48.121,,11,-68,-985
12:40:48.131,,2,-28,-963
12:40:48.141,,-3,-43,-1000
12:40:48.151,,-6,-39,-1025
12:40:48.161,,2,-27,-1034
12:40:48.171,,4,-28,-1039
12:40:48.181,,2,-28,-1028
12:40:48.191,,5,-22,-996
12:40:48.201,,15,-18,-941
12:40:48.211,,12,-26,-925
12:40:48.221,,7,-35,-924
12:40:48.231,,12,-50,-942
12:40:48.241,,36,-119,-1000
12:40:48.251,,48,-166,-1072
12:40:48.261,,56,-141,-1078
12:40:48.271,,27,-86,-1057
12:40:48.281,,2,-28,-1033
12:40:48.291,,-18,-6,-1017
12:40:48.301,,-21,1,-996
12:40:48.311,,-24,0,-996
12:40:48.321,,-15,-1,-1002
12:40:48.331,,-8,-3,-998
12:40:48.341,,10,-26,-1009
12:40:48.351,,19,-53,-1009
12:40:48.361,,25,-58,-1009
12:40:48.371,,10,-59,-1034
12:40:48.381,,0,-52,-1032
12:40:48.391,,-12,-44,-994
12:40:48.401,,-15,-24,-985
12:40:48.411,,-18,-17,-1001
12:40:48.421,,-22,-20,-1011
12:40:48.431,,-19,-27,-993
12:40:48.441,,-21,-34,-988
12:40:48.451,,-21,-33,-1003
12:40:48.461,,-12,-42,-1007
12:40:48.471,,-13,-42,-1011
12:40:48.481,,-11,-43,-1017
12:40:48.491,,-13,-35,-1019
12:40:48.501,,-19,-27,-1032
12:40:48.511,,-25,-25,-1030
12:40:48.521,,-16,-22,-1012
12:40:48.531,,-9,-19,-1004
12:40:48.541,,-11,-21,-1003
12:40:48.551,,-21,-33,-998
12:40:48.561,,-18,-37,-972
12:40:48.571,,-17,-30,-954
12:40:48.581,,-21,-17,-944
12:40:48.591,,-17,-9,-946
12:40:48.601,,-15,0,-950
12:40:48.611,,-27,0,-967
12:40:48.621,,-42,-13,-990
12:40:48.631,,-63,-30,-1016
12:40:48.641,,-79,-35,-1048
12:40:48.651,,-72,-45,-1055
12:40:48.661,,-62,-37,-1054
12:40:48.671,,-44,-16,-1028
12:40:48.681,,-27,7,-1020
12:40:48.691,,-11,14,-1021
12:40:48.701,,0,9,-1010
12:40:48.711,,8,-3,-1037
12:40:48.721,,-2,-13,-1021
12:40:48.731,,-8,-17,-988
12:40:48.741,,-23,-12,-988
12:40:48.751,,-28,-1,-1015
12:40:48.761,,-28,0,-1039
12:40:48.771,,-25,-43,-1077
12:40:48.781,,-25,-68,-1088
12:40:48.791,,-18,-74,-1071
12:40:48.801,,-24,-50,-1029
12:40:48.811,,-12,-22,-993
12:40:48.821,,-15,-4,-984
12:40:48.831,,-28,-1,-1006
12:40:48.841,,-33,-5,-1009
12:40:48.851,,-29,-16,-1000
12:40:48.861,,-26,-36,-1021
12:40:48.871,,-26,-43,-1033
12:40:48.881,,-26,-37,-1021
12:40:48.891,,-22,-33,-992
12:40:48.901,,-25,-2,-974
12:40:48.911,,-21,10,-956
12:40:48.921,,-23,8,-969
12:40:48.931,,-37,-9,-985
12:40:48.941,,-26,-22,-985
12:40:48.951,,-28,-17,-995
12:40:48.961,,-15,0,-1005
12:40:48.971,,-20,-8,-1005
12:40:48.981,,-34,-22,-1024
12:40:48.991,,-52,-27,-1015
12:40:49.001,,-44,-21,-1007
12:40:49.011,,-38,-14,-1012
12:40:49.135,,-38,-52,-996
12:40:49.136,,-38,-52,-996
12:40:49.137,,-38,-52,-996
12:40:49.139,,-38,-52,-996
12:40:49.140,,-38,-52,-996
12:40:49.141,,-38,-52,-996
12:40:49.143,,-40,-50,-1000
12:40:49.144,,-40,-50,-1000
12:40:49.146,,-40,-50,-1000
12:40:49.147,,-40,-50,-1000
12:40:49.148,,-40,-50,-1000
12:40:49.150,,-40,-50,-1000
12:40:49.151,,-40,-50,-1000
12:40:49.152,,-34,-45,-999
12:40:49.161,,-38,-36,-995
12:40:49.171,,-43,-33,-1006
12:40:49.181,,-49,-33,-996
12:40:49.191,,-53,-44,-976
12:40:49.201,,-41,-61,-988
12:40:49.211,,-39,-60,-1003
12:40:49.221,,-38,-61,-998
12:40:49.231,,-36,-62,-987
12:40:49.241,,-42,-56,-976
12:40:49.251,,-43,-44,-979
12:40:49.261,,-41,-44,-997
12:40:49.271,,-46,-56,-1007
12:40:49.281,,-52,-64,-1009
12:40:49.291,,-49,-57,-996
12:40:49.301,,-47,-53,-1000
12:40:49.311,,-64,-43,-973
12:40:49.321,,-50,-37,-967
12:40:49.331,,-45,-43,-1005
12:40:49.341,,-50,-51,-1021
12:40:49.351,,-46,-66,-1031
12:40:49.361,,-47,-77,-1015
12:40:49.371,,-47,-65,-995
12:40:49.381,,-44,-54,-992
12:40:49.391,,-49,-42,-1001
12:40:49.401,,-62,-38,-1004
12:40:49.411,,-67,-39,-985
12:40:49.421,,-57,-45,-999
12:40:49.431,,-41,-43,-1014
12:40:49.441,,-43,-42,-1007
12:40:49.451,,-51,-49,-1004
12:40:49.461,,-47,-41,-990
12:40:49.471,,-38,-50,-990
12:40:49.481,,-49,-49,-1035
12:40:49.491,,-29,-43,-1010
12:40:49.501,,-44,-37,-1000
12:40:49.511,,-26,-20,-988
12:40:49.521,,-43,-13,-982
12:40:49.531,,-32,-14,-1020
12:40:49.541,,-31,-42,-1040
12:40:49.551,,-51,-48,-1018
12:40:49.561,,-35,-49,-1026
12:40:49.571,,-36,-42,-1013
12:40:49.581,,-31,-40,-985
12:40:49.591,,-26,-42,-975
12:40:49.601,,-26,-45,-986
12:40:49.611,,-27,-42,-999
12:40:49.621,,-34,-38,-1010
12:40:49.631,,-35,-37,-1003
12:40:49.641,,-33,-43,-987
12:40:49.651,,-37,-50,-989
12:40:49.661,,-36,-59,-995
12:40:49.671,,-37,-31,-971
12:40:49.681,,-35,-35,-1002
12:40:49.691,,-37,-46,-1022
12:40:49.701,,-33,-61,-1019
12:40:49.711,,-34,-61,-983
12:40:49.721,,-37,-58,-991
12:40:49.731,,-28,-52,-992
12:40:49.741,,-33,-50,-1006
12:40:49.751,,-25,-41,-1017
12:40:49.761,,-29,-33,-1017
12:40:49.771,,-28,-22,-1008
12:40:49.781,,-30,-20,-1007
12:40:49.791,,-28,-20,-1014
12:40:49.801,,-27,-28,-994
12:40:49.811,,-18,-40,-1014
12:40:49.821,,-17,-44,-1026
12:40:49.831,,-22,-30,-1005
12:40:49.841,,-18,-19,-998
12:40:49.851,,-20,-22,-1006
12:40:49.861,,-25,-38,-1007
12:40:49.871,,-25,-41,-1001
12:40:49.881,,-23,-44,-1007
12:40:49.891,,-24,-49,-1006
12:40:49.901,,-27,-46,-1000
12:40:49.911,,-27,-41,-998
12:40:49.921,,-27,-39,-999
12:40:49.931,,-28,-45,-987
12:40:49.941,,-27,-45,-995
12:40:49.951,,-29,-39,-997
12:40:49.961,,-28,-33,-996
12:40:49.971,,-32,-34,-996
12:40:49.981,,-34,-41,-999
12:40:49.991,,-35,-49,-1009
12:40:50.001,,-33,-51,-1018
12:40:50.011,,-35,-48,-1009
12:40:50.021,,-35,-41,-1006
12:40:50.031,,-34,-29,-996
12:40:50.041,,-31,-21,-997
12:40:50.051,,-34,-24,-996
12:40:50.061,,-33,-26,-1016
12:40:50.071,,-33,-27,-1018
12:40:50.081,,-36,-33,-1011
12:40:50.091,,-35,-33,-1009
12:40:50.101,,-32,-27,-998
12:40:50.111,,-31,-28,-1003
12:40:50.121,,-33,-33,-1005
12:40:50.131,,-35,-36,-999
12:40:50.141,,-32,-42,-992
12:40:50.151,,-37,-36,-994
12:40:50.161,,-36,-20,-999
12:40:50.171,,-33,-14,-1004
12:40:50.181,,-31,-24,-1013
12:40:50.191,,-30,-45,-1013
12:40:50.201,,-36,-45,-1007
12:40:50.211,,-37,-38,-993
12:40:50.221,,-32,-39,-1000
12:40:50.231,,-41,-38,-1014
12:40:50.241,,-39,-38,-1018
12:40:50.251,,-35,-28,-1005
12:40:50.261,,-31,-11,-1003
12:40:50.271,,-30,-8,-1000
12:40:50.281,,-25,-18,-995
12:40:50.291,,-26,-21,-993
12:40:50.301,,-29,-23,-997
12:40:50.311,,-31,-29,-1002
12:40:50.321,,-29,-28,-1008
12:40:50.331,,-30,-24,-1015
12:40:50.341,,-32,-22,-1006
12:40:50.351,,-31,-24,-998
12:40:50.361,,-31,-22,-999
12:40:50.371,,-30,-26,-999
12:40:50.381,,-28,-28,-1004
12:40:50.391,,-30,-29,-1016
12:40:50.401,,-30,-23,-1015
12:40:50.411,,-32,-14,-1010
12:40:50.421,,-31,-12,-1002
12:40:50.431,,-35,-18,-998
12:40:50.441,,-34,-30,-1013
12:40:50.451,,-33,-33,-1008
12:40:50.461,,-31,-35,-1002
12:40:50.471,,-31,-39,-999
12:40:50.481,,-34,-34,-997
12:40:50.491,,-29,-26,-995
12:40:50.501,,-28,-29,-988
12:40:50.630,,-38,-9,-1001
12:40:50.631,,-38,-9,-1001
12:40:50.632,,-38,-9,-1001
12:40:50.634,,-38,-9,-1001
12:40:50.635,,-38,-9,-1001
12:40:50.637,,-43,-14,-1002
12:40:50.638,,-43,-14,-1002
12:40:50.639,,-43,-14,-1002
12:40:50.641,,-43,-14,-1002
12:40:50.642,,-43,-14,-1002
12:40:50.643,,-43,-14,-1002
12:40:50.645,,-43,-14,-1009
12:40:50.646,,-42,-15,-1009
12:40:50.647,,-42,-15,-1009
12:40:50.651,,-42,-15,-1009
12:40:50.661,,-43,-13,-1015
12:40:50.671,,-38,-12,-1009
12:40:50.681,,-40,-9,-1002
12:40:50.691,,-39,-14,-1007
12:40:50.701,,-38,-19,-1028
12:40:50.711,,-40,-27,-1038
12:40:50.721,,-35,-20,-1016
12:40:50.731,,-36,-21,-994
12:40:50.741,,-48,-14,-977
12:40:50.751,,-34,-8,-981
12:40:50.761,,-32,-14,-976
12:40:50.771,,-36,-20,-987
12:40:50.781,,-40,-34,-992
12:40:50.791,,-30,-43,-1000
12:40:50.801,,-33,-52,-1009
12:40:50.811,,-33,-59,-1006
12:40:50.821,,-23,-59,-1003
12:40:50.831,,-25,-53,-1026
12:40:50.841,,-25,-46,-1007
12:40:50.851,,-31,-31,-990
12:40:50.861,,-35,-17,-971
12:40:50.871,,-23,-17,-975
12:40:50.881,,-26,-18,-978
12:40:50.891,,-23,-17,-978
12:40:50.901,,-17,-17,-1001
12:40:50.911,,-16,-18,-1018
12:40:50.921,,-22,-13,-1004
12:40:50.931,,-19,-15,-1002
12:40:50.941,,-24,-18,-1007
12:40:50.951,,-22,-14,-1013
12:40:50.961,,-23,-8,-1015
12:40:50.971,,-24,-20,-1013
12:40:50.981,,-21,-27,-1019
12:40:50.991,,-20,-24,-1033
12:40:51.001,,-19,-19,-1038
12:40:51.011,,-17,-14,-1013
12:40:51.021,,-13,-12,-997
12:40:51.031,,-15,-14,-993
12:40:51.041,,-14,-12,-1000
12:40:51.051,,-15,-11,-1003
12:40:51.061,,-16,-17,-999
12:40:51.071,,-18,-16,-998
12:40:51.081,,-18,-12,-993
12:40:51.091,,-18,-18,-981
12:40:51.101,,-18,-20,-992
12:40:51.111,,-20,-21,-993
12:40:51.121,,-21,-16,-991
12:40:51.131,,-19,-22,-999
12:40:51.141,,-20,-25,-1004
12:40:51.151,,-16,-30,-1004
12:40:51.161,,-16,-30,-1003
12:40:51.171,,-15,-28,-990
12:40:51.181,,-12,-27,-976
12:40:51.191,,-9,-20,-981
12:40:51.201,,-6,-16,-993
12:40:51.211,,-7,-20,-1025
12:40:51.221,,-8,-24,-1028
12:40:51.231,,-10,-15,-1028
12:40:51.241,,-7,-15,-1011
12:40:51.251,,-9,-6,-993
12:40:51.261,,-11,-5,-990
12:40:51.271,,-7,-1,-988
12:40:51.281,,-9,2,-1009
12:40:51.291,,-13,4,-1020
12:40:51.301,,-12,2,-1010
12:40:51.311,,-7,-4,-1012
12:40:51.321,,-7,-12,-1023
12:40:51.331,,-9,-10,-1015
12:40:51.341,,-7,5,-1014
12:40:51.351,,-7,4,-1010
12:40:51.361,,-9,-3,-1011
12:40:51.371,,-14,-6,-998
12:40:51.381,,-15,-16,-998
12:40:51.391,,-14,-18,-1008
12:40:51.401,,-13,-9,-1015
12:40:51.411,,-14,-3,-1023
12:40:51.421,,-12,6,-1012
12:40:51.431,,-7,2,-1001
12:40:51.441,,-10,-4,-987
12:40:51.451,,-9,-9,-995
12:40:51.461,,-8,-13,-996
12:40:51.471,,-5,-24,-991
12:40:51.481,,1,-27,-1003
12:40:51.491,,3,-29,-1007
12:40:51.501,,7,-30,-1011
12:40:51.511,,1,-26,-1003
12:40:51.521,,-8,-17,-977
12:40:51.531,,-12,-13,-975
12:40:51.541,,-13,-17,-991
12:40:51.551,,-7,-23,-1013
12:40:51.561,,-8,-15,-1022
12:40:51.571,,-5,-10,-1021
12:40:51.581,,-2,-11,-1010
12:40:51.591,,1,-14,-1006
12:40:51.601,,0,-19,-1007
12:40:51.611,,0,-16,-999
12:40:51.621,,-2,-10,-1001
12:40:51.631,,-3,-1,-1003
12:40:51.641,,-1,3,-1002
12:40:51.651,,0,5,-1000
12:40:51.661,,0,-1,-999
12:40:51.671,,3,-11,-1005
12:40:51.681,,5,-14,-1015
12:40:51.691,,1,-13,-1012
12:40:51.701,,2,-10,-1003
12:40:51.711,,2,-9,-1009
12:40:51.721,,2,-11,-1013
12:40:51.731,,-4,-4,-1002
12:40:51.741,,2,-6,-997
12:40:51.751,,4,-5,-998
12:40:51.761,,10,-6,-1000
12:40:51.771,,17,-13,-1006
12:40:51.781,,15,-15,-1002
12:40:51.791,,13,-9,-1012
12:40:51.801,,21,-11,-1016
12:40:51.811,,25,-10,-1015
12:40:51.821,,26,-9,-1016
12:40:51.831,,21,-9,-1003
12:40:51.841,,10,-12,-991
12:40:51.851,,11,-19,-1014
12:40:51.861,,18,-24,-1023
12:40:51.871,,22,-43,-1011
12:40:51.881,,34,-47,-1005
12:40:51.891,,44,-40,-1013
12:40:51.901,,40,-27,-1011
12:40:51.911,,37,-9,-997
12:40:51.921,,36,-5,-983
12:40:51.931,,41,-12,-990
12:40:51.941,,39,-8,-988
12:40:51.951,,64,-20,-958
12:40:51.961,,61,-34,-959
12:40:51.971,,53,-40,-997
12:40:51.981,,45,-41,-1048
12:40:51.991,,66,-42,-1010
12:40:52.001,,66,-47,-976
12:40:52.011,,64,-45,-992
12:40:52.021,,66,-54,-1001
12:40:52.031,,71,-54,-987
12:40:52.155,,89,-29,-996
12:40:52.156,,89,-29,-996
12:40:52.157,,94,-22,-1002
12:40:52.159,,94,-22,-1002
12:40:52.160,,94,-22,-1002
12:40:52.161,,94,-22,-1002
12:40:52.163,,94,-22,-1002
12:40:52.164,,94,-22,-1002
12:40:52.165,,94,-22,-1002
12:40:52.167,,94,-12,-995
12:40:52.168,,94,-12,-995
12:40:52.169,,94,-12,-995
12:40:52.171,,94,-12,-995
12:40:52.172,,94,-12,-995
12:40:52.181,,91,-13,-993
12:40:52.191,,89,-24,-998
12:40:52.201,,103,-29,-1010
12:40:52.211,,104,-39,-1000
12:40:52.221,,102,-42,-996
12:40:52.231,,102,-17,-995
12:40:52.241,,104,-18,-994
12:40:52.251,,114,-22,-1014
12:40:52.261,,116,-23,-1012
12:40:52.271,,97,-32,-980
12:40:52.281,,101,-30,-957
12:40:52.291,,104,-43,-984
12:40:52.301,,106,-37,-996
12:40:52.311,,124,-32,-1005
12:40:52.321,,133,-46,-1015
12:40:52.331,,135,-37,-1005
12:40:52.341,,135,-22,-993
12:40:52.351,,134,-9,-977
12:40:52.361,,127,-6,-960
12:40:52.371,,143,-16,-992
12:40:52.381,,151,-5,-1005
12:40:52.391,,152,-10,-1014
12:40:52.401,,152,-17,-1007
12:40:52.411,,148,-11,-984
12:40:52.421,,152,-7,-986
12:40:52.431,,152,-7,-994
12:40:52.441,,154,-11,-1002
12:40:52.451,,141,-15,-1001
12:40:52.461,,148,-8,-1000
12:40:52.471,,148,-2,-993
12:40:52.481,,154,-9,-1001
12:40:52.491,,159,-3,-1004
12:40:52.501,,154,-8,-994
12:40:52.511,,155,-6,-993
12:40:52.521,,159,-5,-1009
12:40:52.531,,164,-5,-994
12:40:52.541,,161,-4,-978
12:40:52.551,,161,-4,-987
12:40:52.561,,165,-2,-987
12:40:52.571,,166,5,-987
12:40:52.581,,162,1,-993
12:40:52.591,,163,0,-991
12:40:52.601,,163,2,-990
12:40:52.611,,169,-2,-993
12:40:52.621,,168,-4,-975
12:40:52.631,,166,-3,-969
12:40:52.641,,172,1,-979
12:40:52.651,,171,-4,-999
12:40:52.661,,169,-9,-997
12:40:52.671,,167,-4,-993
12:40:52.681,,168,-2,-994
12:40:52.691,,172,3,-1002
12:40:52.701,,169,12,-999
12:40:52.711,,169,15,-985
12:40:52.721,,173,13,-983
12:40:52.731,,174,1,-994
12:40:52.741,,174,0,-986
12:40:52.751,,176,7,-991
12:40:52.761,,176,7,-988
12:40:52.771,,175,5,-980
12:40:52.781,,178,2,-984
12:40:52.791,,182,-2,-989
12:40:52.801,,172,-2,-973
12:40:52.811,,171,13,-968
12:40:52.821,,174,19,-976
12:40:52.831,,176,15,-984
12:40:52.841,,178,17,-991
12:40:52.851,,178,16,-995
12:40:52.861,,177,17,-991
12:40:52.871,,179,21,-983
12:40:52.881,,182,20,-1000
12:40:52.891,,187,27,-1011
12:40:52.901,,182,33,-995
12:40:52.911,,180,25,-984
12:40:52.921,,181,25,-992
12:40:52.931,,180,29,-987
12:40:52.941,,179,24,-991
12:40:52.951,,184,18,-1002
12:40:52.961,,188,23,-1003
12:40:52.971,,187,39,-989
12:40:52.981,,184,49,-987
12:40:52.991,,184,49,-983
12:40:53.001,,176,52,-969
12:40:53.010,,182,52,-976
12:40:53.020,,185,32,-990
12:40:53.031,,193,29,-993
12:40:53.040,,195,30,-991
12:40:53.050,,190,19,-987
12:40:53.060,,192,18,-979
12:40:53.070,,195,18,-987
12:40:53.080,,197,19,-983
12:40:53.090,,200,25,-986
12:40:53.100,,203,33,-974
12:40:53.110,,199,46,-959
12:40:53.120,,198,42,-965
12:40:53.130,,211,37,-989
12:40:53.140,,223,46,-989
12:40:53.150,,216,40,-980
12:40:53.160,,212,41,-978
12:40:53.170,,218,47,-972
12:40:53.180,,226,51,-966
12:40:53.190,,224,44,-965
12:40:53.200,,235,40,-977
12:40:53.210,,243,40,-993
12:40:53.220,,245,40,-982
12:40:53.230,,244,49,-973
12:40:53.240,,236,76,-962
12:40:53.250,,242,82,-960
12:40:53.260,,251,88,-975
12:40:53.270,,262,81,-992
12:40:53.280,,259,67,-974
12:40:53.290,,265,52,-953
12:40:53.300,,269,51,-937
12:40:53.310,,280,60,-933
12:40:53.320,,292,74,-957
12:40:53.330,,295,69,-947
12:40:53.340,,306,61,-934
12:40:53.350,,302,68,-956
12:40:53.360,,302,87,-968
12:40:53.370,,327,98,-956
12:40:53.380,,321,107,-951
12:40:53.390,,336,77,-944
12:40:53.400,,345,57,-943
12:40:53.410,,365,64,-954
12:40:53.420,,369,61,-969
12:40:53.430,,380,45,-963
12:40:53.440,,392,34,-944
12:40:53.450,,396,49,-927
12:40:53.460,,391,62,-923
12:40:53.470,,389,74,-921
12:40:53.480,,393,89,-908
12:40:53.490,,386,79,-905
12:40:53.500,,376,72,-900
12:40:53.510,,386,74,-895
12:40:53.520,,416,87,-908
12:40:53.530,,442,101,-910
12:40:53.540,,444,105,-909
12:40:53.550,,443,100,-897
12:40:53.560,,441,88,-880
12:40:53.570,,441,111,-873
12:40:53.580,,459,124,-876
12:40:53.590,,483,117,-879
12:40:53.719,,559,96,-867
12:40:53.721,,559,96,-867
12:40:53.722,,559,96,-867
12:40:53.723,,559,96,-867
12:40:53.725,,567,108,-849
12:40:53.726,,567,108,-849
12:40:53.728,,567,108,-849
12:40:53.729,,567,108,-849
12:40:53.730,,567,108,-849
12:40:53.732,,567,108,-849
12:40:53.733,,567,108,-849
12:40:53.734,,574,124,-829
12:40:53.736,,574,124,-829
12:40:53.737,,574,124,-829
12:40:53.740,,574,124,-829
12:40:53.750,,578,126,-846
12:40:53.760,,590,95,-852
12:40:53.770,,591,81,-845
12:40:53.780,,595,89,-818
12:40:53.790,,608,91,-806
12:40:53.800,,618,104,-776
12:40:53.810,,611,134,-764
12:40:53.820,,626,136,-775
12:40:53.830,,628,118,-779
12:40:53.840,,629,132,-765
12:40:53.850,,640,159,-755
12:40:53.860,,642,154,-746
12:40:53.870,,654,138,-754
12:40:53.880,,649,136,-739
12:40:53.890,,656,137,-728
12:40:53.900,,671,124,-727
12:40:53.910,,681,100,-690
12:40:53.920,,692,95,-683
12:40:53.930,,692,66,-687
12:40:53.940,,686,49,-697
12:40:53.950,,698,63,-691
12:40:53.960,,717,87,-669
12:40:53.970,,731,105,-656
12:40:53.980,,746,94,-658
12:40:53.990,,753,86,-653
12:40:54.000,,753,98,-653
12:40:54.010,,754,97,-633
12:40:54.020,,765,100,-628
12:40:54.030,,781,107,-601
12:40:54.040,,798,87,-597
12:40:54.050,,794,69,-605
12:40:54.060,,782,72,-585
12:40:54.070,,788,84,-577
12:40:54.080,,799,88,-571
12:40:54.090,,843,84,-582
12:40:54.100,,868,70,-574
12:40:54.110,,861,74,-557
12:40:54.120,,845,87,-558
12:40:54.130,,839,93,-545
12:40:54.140,,834,93,-537
12:40:54.150,,835,92,-529
12:40:54.160,,862,90,-506
12:40:54.170,,858,86,-496
12:40:54.180,,852,80,-489
12:40:54.190,,878,104,-489
12:40:54.200,,915,93,-488
12:40:54.210,,900,74,-484
12:40:54.220,,876,94,-465
12:40:54.230,,870,101,-458
12:40:54.240,,873,112,-444
12:40:54.250,,886,109,-437
12:40:54.260,,893,94,-431
12:40:54.270,,891,84,-438
12:40:54.280,,886,77,-441
12:40:54.290,,903,85,-422
12:40:54.300,,908,94,-420
12:40:54.310,,913,95,-396
12:40:54.320,,892,83,-387
12:40:54.330,,882,84,-358
12:40:54.340,,906,87,-361
12:40:54.350,,934,79,-356
12:40:54.360,,957,58,-339
12:40:54.370,,943,53,-339
12:40:54.380,,945,47,-341
12:40:54.390,,927,47,-330
12:40:54.400,,933,41,-320
12:40:54.410,,927,42,-309
12:40:54.420,,977,67,-294
12:40:54.430,,973,74,-284
12:40:54.440,,960,72,-272
12:40:54.450,,960,65,-273
12:40:54.460,,984,50,-265
12:40:54.470,,980,35,-258
12:40:54.480,,943,32,-235
12:40:54.490,,925,47,-221
12:40:54.500,,939,62,-207
12:40:54.510,,969,52,-218
12:40:54.520,,977,46,-223
12:40:54.530,,1007,47,-227
12:40:54.540,,1013,47,-214
12:40:54.550,,972,81,-180
12:40:54.560,,987,90,-173
12:40:54.570,,981,80,-176
12:40:54.580,,985,67,-181
12:40:54.590,,984,49,-173
12:40:54.600,,974,61,-169
12:40:54.610,,958,79,-147
12:40:54.620,,976,75,-151
12:40:54.630,,1008,63,-150
12:40:54.640,,1024,55,-148
12:40:54.650,,999,55,-143
12:40:54.660,,975,69,-135
12:40:54.670,,980,54,-142
12:40:54.680,,976,43,-111
12:40:54.690,,966,45,-98
12:40:54.700,,965,43,-78
12:40:54.710,,962,35,-76
12:40:54.720,,981,35,-77
12:40:54.730,,1004,33,-72
12:40:54.740,,1016,29,-72
12:40:54.750,,1010,24,-57
12:40:54.760,,992,25,-53
12:40:54.770,,984,31,-38
12:40:54.780,,998,36,-45
12:40:54.790,,972,52,-21
12:40:54.800,,988,48,-30
12:40:54.810,,1009,39,-24
12:40:54.820,,1019,36,-16
12:40:54.830,,1010,44,-14
12:40:54.840,,965,63,6
12:40:54.850,,979,46,12
12:40:54.860,,999,57,-3
12:40:54.870,,990,73,23
12:40:54.880,,990,53,30
12:40:54.890,,1011,44,30
12:40:54.900,,1008,53,33
12:40:54.910,,1005,50,34
12:40:54.920,,1003,41,37
12:40:54.930,,1014,44,41
12:40:54.940,,1006,38,38
12:40:54.950,,1003,44,44
12:40:54.960,,998,41,49
12:40:54.970,,1003,37,47
12:40:54.980,,1000,36,55
12:40:54.990,,1005,28,52
12:40:55.000,,992,23,60
12:40:55.010,,987,32,70
12:40:55.020,,998,46,73
12:40:55.030,,1017,49,77
12:40:55.040,,1022,49,82
12:40:55.050,,1022,47,84
12:40:55.060,,1023,30,84
12:40:55.070,,1019,16,83
12:40:55.080,,1018,22,76
12:40:55.090,,1012,42,64
12:40:55.100,,1004,47,62
12:40:55.110,,1002,52,52
12:40:55.120,,989,63,43
12:40:55.130,,989,56,52
12:40:55.140,,1003,48,56
12:40:55.150,,1000,37,56
12:40:55.160,,998,38,49
12:40:55.170,,994,39,77
12:40:55.180,,967,50,104
12:40:55.304,,996,67,47
12:40:55.305,,996,67,47
12:40:55.306,,996,67,47
12:40:55.308,,996,67,47
12:40:55.309,,996,67,47
12:40:55.310,,996,67,47
12:40:55.312,,1007,37,53
12:40:55.313,,1007,37,53
12:40:55.314,,1007,37,53
12:40:55.316,,1007,37,53
12:40:55.317,,1007,37,53
12:40:55.319,,1007,37,53
12:40:55.320,,1007,14,57
12:40:55.321,,1019,14,57
12:40:55.330,,988,27,49
12:40:55.340,,965,47,37
12:40:55.350,,975,55,49
12:40:55.360,,1001,64,71
12:40:55.370,,1013,71,62
12:40:55.380,,1039,57,59
12:40:55.390,,1047,16,75
12:40:55.400,,1017,-4,83
12:40:55.410,,997,22,87
12:40:55.420,,1000,49,79
12:40:55.430,,1012,57,75
12:40:55.440,,1010,58,77
12:40:55.450,,980,64,65
12:40:55.460,,986,77,70
12:40:55.470,,988,73,62
12:40:55.480,,989,60,71
12:40:55.490,,1006,43,66
12:40:55.500,,1015,40,69
12:40:55.510,,1014,51,70
12:40:55.520,,1014,61,72
12:40:55.530,,1014,65,82
12:40:55.540,,1012,61,86
12:40:55.550,,1023,62,73
12:40:55.560,,1012,64,47
12:40:55.570,,982,53,47
12:40:55.580,,965,41,46
12:40:55.590,,981,43,36
12:40:55.600,,983,50,43
12:40:55.610,,985,52,35
12:40:55.620,,962,47,74
12:40:55.630,,927,36,116
12:40:55.640,,968,17,119
12:40:55.650,,980,-7,75
12:40:55.660,,988,4,73
12:40:55.670,,1012,53,66
12:40:55.680,,1026,67,78
12:40:55.690,,980,45,83
12:40:55.700,,989,7,68
12:40:55.710,,1001,17,98
12:40:55.720,,1008,36,108
12:40:55.730,,1034,36,95
12:40:55.740,,1042,32,77
12:40:55.750,,1048,54,70
12:40:55.760,,1060,79,81
12:40:55.770,,1036,80,77
12:40:55.780,,1006,74,73
12:40:55.790,,995,59,76
12:40:55.800,,1007,58,64
12:40:55.810,,985,57,55
12:40:55.820,,979,47,86
12:40:55.830,,1044,113,48
12:40:55.840,,1009,94,61
12:40:55.850,,986,87,71
12:40:55.860,,998,98,55
12:40:55.870,,1000,101,26
12:40:55.880,,968,71,13
12:40:55.890,,970,36,14
12:40:55.900,,1006,11,17
12:40:55.910,,988,4,4
12:40:55.920,,955,-12,-7
12:40:55.930,,947,-27,-1
12:40:55.940,,958,-15,2
12:40:55.950,,974,5,8
12:40:55.960,,994,72,31
12:40:55.970,,983,102,43
12:40:55.980,,1021,90,45
12:40:55.990,,1021,63,24
12:40:56.000,,1001,62,-17
12:40:56.010,,1019,75,-31
12:40:56.020,,1016,86,-16
12:40:56.030,,1009,79,3
12:40:56.040,,998,53,14
12:40:56.050,,991,34,13
12:40:56.060,,1001,20,23
12:40:56.070,,1019,17,20
12:40:56.080,,1009,5,14
12:40:56.090,,1000,37,-7
12:40:56.100,,989,52,-4
12:40:56.110,,989,52,4
12:40:56.120,,983,37,9
12:40:56.130,,979,19,6
12:40:56.140,,983,8,11
12:40:56.150,,979,6,5
12:40:56.160,,998,11,2
12:40:56.170,,1035,29,13
12:40:56.180,,1042,62,0
12:40:56.190,,1020,55,-3
12:40:56.200,,1014,45,-1
12:40:56.210,,992,38,0
12:40:56.220,,970,52,30
12:40:56.230,,965,72,41
12:40:56.240,,984,76,54
12:40:56.250,,1002,84,38
12:40:56.260,,1017,99,26
12:40:56.270,,1030,93,35
12:40:56.280,,1033,73,30
12:40:56.290,,1021,55,32
12:40:56.300,,997,51,31
12:40:56.310,,974,54,14
12:40:56.320,,983,52,14
12:40:56.330,,997,45,15
12:40:56.340,,993,38,2
12:40:56.350,,1018,49,9
12:40:56.360,,1022,57,34
12:40:56.370,,1024,86,36
12:40:56.380,,1035,71,29
12:40:56.390,,1013,33,33
12:40:56.400,,978,40,29
12:40:56.410,,973,63,32
12:40:56.420,,979,63,39
12:40:56.430,,978,60,53
12:40:56.440,,989,79,63
12:40:56.450,,1004,99,66
12:40:56.460,,1007,110,64
12:40:56.470,,995,88,62
12:40:56.480,,969,81,58
12:40:56.490,,992,72,55
12:40:56.500,,996,74,62
12:40:56.510,,979,78,70
12:40:56.520,,978,81,81
12:40:56.530,,967,84,88
12:40:56.540,,952,79,91
12:40:56.550,,975,77,89
12:40:56.560,,1001,86,88
12:40:56.570,,1023,113,75
12:40:56.580,,1030,130,72
12:40:56.590,,1035,144,75
12:40:56.600,,1023,98,61
12:40:56.610,,999,77,38
12:40:56.620,,973,53,32
12:40:56.630,,963,43,61
12:40:56.640,,963,55,89
12:40:56.650,,970,73,97
12:40:56.660,,989,86,96
12:40:56.670,,1020,113,83
12:40:56.680,,1050,142,80
12:40:56.690,,1077,171,72
12:40:56.700,,1095,151,78
12:40:56.710,,1066,115,69
12:40:56.720,,1039,73,53
12:40:56.730,,994,-4,10
12:40:56.740,,979,-18,13
12:40:56.750,,966,-25,32
12:40:56.760,,964,-24,62
12:40:56.770,,966,-19,84
12:40:56.780,,976,-6,99
12:40:56.790,,992,17,110
12:40:56.800,,1015,47,112
12:40:56.810,,1024,62,104
12:40:56.820,,1004,74,86
12:40:56.830,,972,73,83
12:40:56.840,,941,53,91
12:40:56.850,,928,29,98
12:40:56.980,,987,114,141
12:40:56.981,,982,110,132
12:40:56.982,,982,110,132
12:40:56.984,,982,110,132
12:40:56.985,,982,110,132
12:40:56.986,,982,110,132
12:40:56.988,,982,110,132
12:40:56.989,,982,110,132
12:40:56.990,,974,92,143
12:40:56.992,,974,92,143
12:40:56.993,,974,92,143
12:40:56.995,,974,92,143
12:40:56.996,,974,92,143
12:40:56.997,,974,92,143
12:40:57.000,,980,73,163
12:40:57.010,,995,65,168
12:40:57.020,,1001,64,163
12:40:57.030,,1016,79,155
12:40:57.040,,1017,92,149
12:40:57.050,,1003,103,131
12:40:57.060,,980,100,130
12:40:57.070,,963,110,135
12:40:57.080,,947,97,146
12:40:57.090,,939,71,163
12:40:57.100,,948,76,170
12:40:57.110,,964,107,163
12:40:57.120,,974,112,153
12:40:57.130,,973,91,145
12:40:57.140,,984,83,140
12:40:57.150,,1013,75,152
12:40:57.160,,1021,62,135
12:40:57.170,,1033,58,128
12:40:57.180,,1006,44,119
12:40:57.190,,967,47,120
12:40:57.200,,958,65,140
12:40:57.210,,965,82,160
12:40:57.220,,981,91,182
12:40:57.230,,989,86,188
12:40:57.240,,972,64,175
12:40:57.250,,964,69,176
12:40:57.260,,959,79,170
12:40:57.270,,963,88,167
12:40:57.280,,973,81,176
12:40:57.290,,969,81,182
12:40:57.300,,976,82,193
12:40:57.310,,987,89,197
12:40:57.320,,992,107,197
12:40:57.330,,994,128,198
12:40:57.340,,996,140,192
12:40:57.350,,990,126,180
12:40:57.360,,993,103,175
12:40:57.370,,978,101,159
12:40:57.380,,967,104,164
12:40:57.390,,950,102,169
12:40:57.400,,943,89,186
12:40:57.410,,956,93,202
12:40:57.420,,978,105,210
12:40:57.430,,991,111,200
12:40:57.440,,999,123,193
12:40:57.450,,1010,137,185
12:40:57.460,,1004,135,173
12:40:57.470,,1007,125,170
12:40:57.480,,1004,104,168
12:40:57.490,,988,97,167
12:40:57.500,,936,66,179
12:40:57.510,,927,59,186
12:40:57.520,,933,54,191
12:40:57.530,,961,73,193
12:40:57.540,,1003,125,192
12:40:57.550,,1025,146,182
12:40:57.560,,1004,128,170
12:40:57.570,,982,110,174
12:40:57.580,,961,92,183
12:40:57.590,,954,78,189
12:40:57.600,,954,89,186
12:40:57.610,,961,103,189
12:40:57.620,,976,118,198
12:40:57.630,,982,134,199
12:40:57.640,,973,113,198
12:40:57.650,,977,89,197
12:40:57.660,,980,92,196
12:40:57.670,,977,104,197
12:40:57.680,,970,111,199
12:40:57.690,,965,115,196
12:40:57.700,,976,122,197
12:40:57.710,,977,127,198
12:40:57.720,,966,131,197
12:40:57.730,,960,124,213
12:40:57.740,,962,121,221
12:40:57.750,,968,138,232
12:40:57.760,,970,126,212
12:40:57.770,,968,120,201
12:40:57.780,,963,128,200
12:40:57.790,,964,122,203
12:40:57.800,,967,114,203
12:40:57.810,,962,110,202
12:40:57.820,,961,104,209
12:40:57.830,,975,101,216
12:40:57.840,,973,115,208
12:40:57.850,,972,134,207
12:40:57.860,,969,145,209
12:40:57.870,,981,149,222
12:40:57.880,,974,141,216
12:40:57.890,,951,120,214
12:40:57.900,,965,112,207
12:40:57.910,,979,114,202
12:40:57.920,,981,124,193
12:40:57.930,,987,129,195
12:40:57.940,,983,123,198
12:40:57.950,,979,116,208
12:40:57.960,,964,115,209
12:40:57.970,,947,110,211
12:40:57.980,,950,109,212
12:40:57.990,,968,125,217
12:40:58.000,,973,139,214
12:40:58.010,,965,127,206
12:40:58.020,,954,133,209
12:40:58.030,,954,128,212
12:40:58.040,,969,129,215
12:40:58.050,,971,129,223
12:40:58.060,,957,132,211
12:40:58.070,,960,129,214
12:40:58.080,,969,138,218
12:40:58.090,,981,153,219
12:40:58.100,,980,152,217
12:40:58.110,,977,132,211
12:40:58.120,,963,122,198
12:40:58.130,,958,116,201
12:40:58.140,,965,136,213
12:40:58.150,,970,144,215
12:40:58.160,,971,137,218
12:40:58.170,,979,121,223
12:40:58.180,,972,122,220
12:40:58.190,,956,137,218
12:40:58.200,,950,137,223
12:40:58.210,,956,135,217
12:40:58.220,,958,139,207
12:40:58.230,,973,139,213
12:40:58.240,,976,138,217
12:40:58.250,,979,137,218
12:40:58.260,,977,132,219
12:40:58.270,,962,132,218
12:40:58.280,,946,133,216
12:40:58.290,,950,136,225
12:40:58.300,,966,147,228
12:40:58.310,,972,155,228
12:40:58.320,,976,137,223
12:40:58.330,,974,116,220
12:40:58.340,,962,125,214
12:40:58.350,,963,140,224
12:40:58.360,,964,146,227
12:40:58.370,,963,152,232
12:40:58.380,,963,148,238
12:40:58.390,,962,139,235
12:40:58.400,,934,121,224
12:40:58.410,,940,134,225
12:40:58.420,,962,158,239
12:40:58.430,,971,156,243
12:40:58.554,,960,142,233
12:40:58.556,,960,142,233
12:40:58.557,,960,142,233
12:40:58.558,,966,146,237
12:40:58.560,,966,146,237
12:40:58.561,,966,146,237
12:40:58.562,,966,146,237
12:40:58.564,,966,146,237
12:40:58.565,,966,146,237
12:40:58.566,,966,146,243
12:40:58.568,,974,151,243
12:40:58.569,,974,151,243
12:40:58.571,,974,151,243
12:40:58.572,,974,151,243
12:40:58.580,,967,153,243
12:40:58.590,,951,153,242
12:40:58.600,,934,144,246
12:40:58.610,,938,141,247
12:40:58.620,,953,144,247
12:40:58.630,,965,146,242
12:40:58.640,,970,145,238
12:40:58.650,,966,154,236
12:40:58.660,,951,154,238
12:40:58.670,,951,145,242
12:40:58.680,,958,136,241
12:40:58.690,,965,127,241
12:40:58.700,,961,132,231
12:40:58.710,,959,144,231
12:40:58.720,,961,161,231
12:40:58.730,,961,164,238
12:40:58.740,,956,150,239
12:40:58.750,,952,136,242
12:40:58.760,,952,139,243
12:40:58.770,,957,146,251
12:40:58.780,,956,164,261
12:40:58.790,,952,158,258
12:40:58.800,,953,145,251
12:40:58.810,,953,141,247
12:40:58.820,,953,150,247
12:40:58.830,,957,172,250
12:40:58.840,,974,189,258
12:40:58.850,,977,183,259
12:40:58.860,,970,168,251
12:40:58.870,,949,148,243
12:40:58.880,,936,136,247
12:40:58.890,,940,143,253
12:40:58.900,,955,145,257
12:40:58.910,,964,177,263
12:40:58.920,,965,170,260
12:40:58.930,,956,160,253
12:40:58.940,,943,156,249
12:40:58.950,,935,149,249
12:40:58.960,,941,152,255
12:40:58.970,,960,171,266
12:40:58.980,,960,172,266
12:40:58.990,,954,159,261
12:40:59.000,,956,161,265
12:40:59.010,,957,167,266
12:40:59.020,,957,163,258
12:40:59.030,,960,159,255
12:40:59.040,,955,161,262
12:40:59.050,,945,156,261
12:40:59.060,,941,144,260
12:40:59.070,,939,143,262
12:40:59.080,,948,152,268
12:40:59.090,,954,173,269
12:40:59.100,,955,188,273
12:40:59.110,,960,173,273
12:40:59.120,,956,155,266
12:40:59.130,,937,134,251
12:40:59.140,,936,122,247
12:40:59.150,,943,117,251
12:40:59.160,,945,120,244
12:40:59.170,,950,158,270
12:40:59.180,,955,173,276
12:40:59.190,,958,170,275
12:40:59.200,,958,163,272
12:40:59.210,,955,156,269
12:40:59.220,,951,145,265
12:40:59.230,,947,145,262
12:40:59.240,,942,152,260
12:40:59.250,,939,147,259
12:40:59.260,,942,135,261
12:40:59.270,,948,139,265
12:40:59.280,,955,149,268
12:40:59.290,,963,148,273
12:40:59.300,,967,161,272
12:40:59.310,,960,163,269
12:40:59.320,,952,155,267
12:40:59.330,,937,150,264
12:40:59.340,,930,147,267
12:40:59.350,,937,152,272
12:40:59.360,,945,157,273
12:40:59.370,,950,163,275
12:40:59.380,,959,165,274
12:40:59.390,,962,160,274
12:40:59.400,,955,157,274
12:40:59.410,,951,162,280
12:40:59.420,,947,159,270
12:40:59.430,,938,139,266
12:40:59.440,,947,149,267
12:40:59.450,,959,159,269
12:40:59.460,,966,165,273
12:40:59.470,,965,162,277
12:40:59.480,,959,152,273
12:40:59.490,,953,140,268
12:40:59.500,,948,135,267
12:40:59.510,,947,132,267
12:40:59.520,,947,139,269
12:40:59.530,,942,149,268
12:40:59.540,,938,150,269
12:40:59.550,,944,154,286
12:40:59.560,,953,151,283
12:40:59.570,,951,147,274
12:40:59.580,,944,135,266
12:40:59.590,,933,123,263
12:40:59.600,,933,127,268
12:40:59.610,,952,143,285
12:40:59.620,,956,164,289
12:40:59.630,,952,168,293
12:40:59.640,,946,167,289
12:40:59.650,,938,156,286
12:40:59.660,,929,139,278
12:40:59.670,,935,134,273
12:40:59.680,,963,147,279
12:40:59.690,,956,155,281
12:40:59.700,,948,161,286
12:40:59.710,,942,155,287
12:40:59.720,,941,151,286
12:40:59.730,,949,152,288
12:40:59.740,,953,149,288
12:40:59.750,,953,150,282
12:40:59.760,,951,153,284
12:40:59.770,,954,149,282
12:40:59.780,,958,147,286
12:40:59.790,,958,144,284
12:40:59.800,,951,135,282
12:40:59.810,,941,137,289
12:40:59.820,,943,137,288
12:40:59.830,,953,140,288
12:40:59.840,,966,140,293
12:40:59.850,,957,138,289
12:40:59.860,,939,134,286
12:40:59.870,,930,131,292
12:40:59.880,,935,132,302
12:40:59.890,,944,141,298
12:40:59.900,,961,146,301
12:40:59.910,,975,147,299
12:40:59.920,,963,144,293
12:40:59.930,,956,133,292
12:40:59.940,,935,107,291
12:40:59.950,,934,102,293
12:40:59.960,,927,110,296
12:40:59.970,,925,125,312
12:40:59.980,,924,120,315
12:40:59.990,,933,120,320
12:41:00.000,,947,133,321
12:41:00.010,,951,127,321
12:41:00.139,,968,122,325
12:41:00.141,,968,122,325
12:41:00.142,,968,122,325
12:41:00.144,,968,121,325
12:41:00.145,,969,121,325
12:41:00.146,,969,121,325
12:41:00.148,,969,121,325
12:41:00.149,,969,121,325
12:41:00.150,,969,121,325
12:41:00.152,,969,121,325
12:41:00.153,,965,108,322
12:41:00.154,,965,108,322
12:41:00.156,,965,108,322
12:41:00.157,,965,108,322
12:41:00.160,,965,108,322
12:41:00.170,,970,99,323
12:41:00.180,,984,113,325
12:41:00.190,,985,125,329
12:41:00.200,,946,109,320
12:41:00.210,,924,74,324
12:41:00.220,,914,55,336
12:41:00.230,,923,72,352
12:41:00.240,,947,86,360
12:41:00.250,,954,93,356
12:41:00.260,,944,78,353
12:41:00.270,,922,47,354
12:41:00.280,,899,34,351
12:41:00.290,,916,49,369
12:41:00.300,,953,75,385
12:41:00.310,,967,80,384
12:41:00.320,,966,57,370
12:41:00.330,,932,32,359
12:41:00.340,,920,18,354
12:41:00.350,,920,6,371
12:41:00.360,,929,-10,384
12:41:00.370,,919,-26,392
12:41:00.380,,918,-36,403
12:41:00.390,,921,-34,398
12:41:00.400,,935,-13,405
12:41:00.410,,946,5,411
12:41:00.420,,940,-1,402
12:41:00.430,,954,5,408
12:41:00.440,,929,9,402
12:41:00.450,,898,-60,419
12:41:00.460,,875,-75,408
12:41:00.470,,861,-108,406
12:41:00.480,,885,-120,409
12:41:00.490,,924,-97,421
12:41:00.500,,953,-66,422
12:41:00.510,,966,-54,422
12:41:00.520,,957,-65,413
12:41:00.530,,936,-83,401
12:41:00.540,,914,-96,400
12:41:00.550,,915,-101,405
12:41:00.560,,912,-92,414
12:41:00.570,,895,-87,427
12:41:00.580,,890,-124,471
12:41:00.590,,911,-105,479
12:41:00.600,,954,-99,489
12:41:00.610,,949,-126,498
12:41:00.620,,940,-141,483
12:41:00.630,,916,-162,473
12:41:00.640,,895,-186,457
12:41:00.650,,895,-208,467
12:41:00.660,,859,-231,460
12:41:00.670,,819,-259,461
12:41:00.680,,798,-283,476
12:41:00.690,,803,-274,488
12:41:00.700,,825,-248,500
12:41:00.710,,873,-192,526
12:41:00.720,,882,-198,505
12:41:00.730,,876,-238,497
12:41:00.740,,849,-298,476
12:41:00.750,,807,-353,441
12:41:00.760,,803,-388,447
12:41:00.770,,798,-418,462
12:41:00.780,,773,-415,451
12:41:00.790,,730,-398,460
12:41:00.800,,723,-394,500
12:41:00.810,,722,-390,523
12:41:00.820,,730,-365,526
12:41:00.830,,787,-352,541
12:41:00.840,,801,-414,500
12:41:00.850,,790,-433,480
12:41:00.860,,765,-439,472
12:41:00.870,,733,-458,477
12:41:00.880,,699,-476,486
12:41:00.890,,668,-488,499
12:41:00.900,,654,-473,537
12:41:00.910,,670,-452,559
12:41:00.920,,686,-444,562
12:41:00.930,,704,-437,562
12:41:00.940,,696,-439,538
12:41:00.950,,678,-466,536
12:41:00.960,,660,-498,532
12:41:00.970,,660,-533,540
12:41:00.980,,643,-558,534
12:41:00.990,,662,-572,546
12:41:01.000,,660,-547,561
12:41:01.010,,660,-520,571
12:41:01.020,,664,-536,579
12:41:01.030,,647,-536,562
12:41:01.040,,625,-541,559
12:41:01.050,,627,-547,565
12:41:01.060,,615,-544,553
12:41:01.070,,606,-572,556
12:41:01.080,,628,-592,561
12:41:01.090,,638,-602,554
12:41:01.100,,555,-598,535
12:41:01.110,,529,-596,550
12:41:01.120,,498,-600,578
12:41:01.130,,498,-592,605
12:41:01.140,,557,-583,620
12:41:01.150,,574,-611,589
12:41:01.160,,589,-642,581
12:41:01.170,,560,-661,547
12:41:01.180,,541,-681,542
12:41:01.190,,498,-707,559
12:41:01.200,,481,-676,566
12:41:01.210,,458,-644,593
12:41:01.220,,377,-610,637
12:41:01.230,,388,-607,643
12:41:01.240,,427,-605,639
12:41:01.250,,485,-650,595
12:41:01.260,,533,-731,568
12:41:01.270,,519,-771,511
12:41:01.280,,484,-785,487
12:41:01.290,,431,-782,493
12:41:01.300,,349,-752,500
12:41:01.310,,285,-721,556
12:41:01.320,,251,-723,607
12:41:01.330,,286,-730,598
12:41:01.340,,312,-713,591
12:41:01.350,,339,-736,577
12:41:01.360,,348,-795,566
12:41:01.370,,376,-833,534
12:41:01.380,,399,-848,499
12:41:01.390,,315,-851,470
12:41:01.400,,221,-842,487
12:41:01.410,,138,-826,513
12:41:01.420,,71,-823,529
12:41:01.430,,44,-819,528
12:41:01.440,,60,-817,523
12:41:01.450,,62,-825,523
12:41:01.460,,92,-821,510
12:41:01.470,,128,-822,524
12:41:01.480,,115,-838,495
12:41:01.490,,71,-855,506
12:41:01.500,,14,-845,503
12:41:01.510,,-42,-855,499
12:41:01.520,,-105,-853,477
12:41:01.530,,-132,-849,457
12:41:01.540,,-66,-876,450
12:41:01.550,,-26,-912,441
12:41:01.560,,4,-931,407
12:41:01.684,,-237,-922,326
12:41:01.686,,-237,-922,326
12:41:01.687,,-237,-922,326
12:41:01.688,,-237,-922,326
12:41:01.690,,-237,-922,326
12:41:01.691,,-237,-922,326
12:41:01.692,,-237,-922,329
12:41:01.694,,-278,-923,329
12:41:01.695,,-278,-923,329
12:41:01.696,,-278,-923,329
12:41:01.698,,-278,-923,329
12:41:01.699,,-278,-923,329
12:41:01.701,,-278,-923,329
12:41:01.702,,-278,-920,340
12:41:01.710,,-351,-920,340
12:41:01.720,,-360,-893,371
12:41:01.730,,-346,-863,380
12:41:01.740,,-372,-876,377
12:41:01.750,,-342,-900,372
12:41:01.760,,-346,-890,361
12:41:01.770,,-338,-863,373
12:41:01.780,,-330,-844,362
12:41:01.790,,-340,-832,359
12:41:01.800,,-378,-828,366
12:41:01.810,,-444,-812,347
12:41:01.820,,-473,-779,349
12:41:01.830,,-475,-763,365
12:41:01.840,,-483,-763,382
12:41:01.850,,-459,-772,420
12:41:01.860,,-443,-791,417
12:41:01.870,,-390,-792,404
12:41:01.880,,-379,-814,401
12:41:01.890,,-412,-808,406
12:41:01.900,,-456,-799,417
12:41:01.910,,-537,-799,396
12:41:01.920,,-594,-811,388
12:41:01.930,,-582,-826,394
12:41:01.940,,-508,-814,378
12:41:01.950,,-424,-808,341
12:41:01.960,,-394,-812,322
12:41:01.970,,-394,-818,322
12:41:01.980,,-433,-822,340
12:41:01.990,,-516,-765,372
12:41:02.000,,-550,-770,397
12:41:02.010,,-563,-805,396
12:41:02.020,,-597,-812,361
12:41:02.030,,-601,-797,349
12:41:02.040,,-585,-776,352
12:41:02.050,,-542,-778,353
12:41:02.060,,-499,-797,390
12:41:02.070,,-470,-809,390
12:41:02.080,,-515,-804,358
12:41:02.090,,-597,-765,343
12:41:02.100,,-611,-735,345
12:41:02.110,,-613,-742,359
12:41:02.120,,-633,-745,350
12:41:02.130,,-607,-741,324
12:41:02.140,,-554,-747,315
12:41:02.150,,-524,-752,314
12:41:02.160,,-551,-747,313
12:41:02.170,,-581,-734,319
12:41:02.180,,-612,-718,315
12:41:02.190,,-608,-715,339
12:41:02.200,,-607,-713,350
12:41:02.210,,-604,-733,358
12:41:02.220,,-616,-751,355
12:41:02.230,,-637,-741,345
12:41:02.240,,-662,-700,358
12:41:02.250,,-649,-768,328
12:41:02.260,,-626,-745,287
12:41:02.270,,-607,-744,263
12:41:02.280,,-622,-764,292
12:41:02.290,,-611,-757,327
12:41:02.300,,-614,-735,326
12:41:02.310,,-595,-717,324
12:41:02.320,,-576,-716,334
12:41:02.329,,-604,-717,310
12:41:02.340,,-614,-724,309
12:41:02.350,,-593,-725,348
12:41:02.359,,-626,-709,354
12:41:02.370,,-665,-681,357
12:41:02.380,,-582,-693,332
12:41:02.389,,-582,-724,309
12:41:02.400,,-595,-752,312
12:41:02.410,,-613,-750,303
12:41:02.419,,-616,-725,291
12:41:02.430,,-618,-702,291
12:41:02.440,,-618,-693,310
12:41:02.449,,-602,-711,322
12:41:02.460,,-632,-701,333
12:41:02.469,,-667,-694,334
12:41:02.479,,-678,-691,327
12:41:02.490,,-666,-672,334
12:41:02.499,,-695,-675,371
12:41:02.509,,-735,-679,347
12:41:02.520,,-703,-666,336
12:41:02.529,,-659,-666,329
12:41:02.539,,-609,-681,313
12:41:02.550,,-598,-697,305
12:41:02.559,,-594,-724,303
12:41:02.569,,-647,-749,286
12:41:02.580,,-758,-770,243
12:41:02.589,,-817,-701,219
12:41:02.599,,-725,-706,251
12:41:02.610,,-769,-672,328
12:41:02.619,,-782,-598,386
12:41:02.629,,-725,-614,316
12:41:02.639,,-686,-678,319
12:41:02.649,,-678,-716,321
12:41:02.659,,-692,-691,326
12:41:02.669,,-762,-610,327
12:41:02.679,,-828,-544,322
12:41:02.689,,-876,-470,181
12:41:02.699,,-925,-461,159
12:41:02.709,,-868,-476,256
12:41:02.719,,-407,-548,486
12:41:02.729,,-835,-456,467
12:41:02.739,,-957,-389,399
12:41:02.749,,-867,-403,311
12:41:02.759,,-883,-462,244
12:41:02.769,,-900,-466,270
12:41:02.779,,-910,-466,319
12:41:02.789,,-920,-477,372
12:41:02.799,,-919,-454,405
12:41:02.809,,-858,-450,401
12:41:02.819,,-826,-423,372
12:41:02.829,,-815,-386,324
12:41:02.839,,-799,-392,262
12:41:02.849,,-757,-413,200
12:41:02.859,,-804,-391,164
12:41:02.869,,-873,-361,166
12:41:02.879,,-900,-334,196
12:41:02.889,,-893,-300,235
12:41:02.899,,-856,-295,241
12:41:02.909,,-810,-303,232
12:41:02.919,,-826,-280,207
12:41:02.929,,-867,-228,171
12:41:02.939,,-888,-195,136
12:41:02.949,,-926,-180,115
12:41:02.959,,-943,-201,122
12:41:02.969,,-955,-206,144
12:41:02.979,,-990,-167,169
12:41:02.989,,-1009,-118,181
12:41:02.999,,-1019,-92,189
12:41:03.009,,-1044,-89,193
12:41:03.019,,-1023,-96,202
12:41:03.149,,-957,-52,128
12:41:03.150,,-969,-49,110
12:41:03.151,,-969,-49,110
12:41:03.153,,-969,-49,110
12:41:03.154,,-969,-49,110
12:41:03.155,,-969,-49,110
12:41:03.157,,-969,-49,110
12:41:03.158,,-969,-49,103
12:41:03.159,,-1002,-55,103
12:41:03.161,,-1002,-55,103
12:41:03.162,,-1002,-55,103
12:41:03.164,,-1002,-55,103
12:41:03.165,,-1002,-55,103
12:41:03.166,,-1002,-55,103
12:41:03.169,,-1000,-51,109
12:41:03.179,,-1015,-21,122
12:41:03.189,,-1051,-11,133
12:41:03.199,,-1044,-31,139
12:41:03.209,,-1004,-30,145
12:41:03.219,,-948,-25,139
12:41:03.229,,-943,-26,119
12:41:03.239,,-944,-45,95
12:41:03.249,,-940,-65,72
12:41:03.259,,-925,-77,63
12:41:03.269,,-941,-62,88
12:41:03.279,,-987,-62,116
12:41:03.289,,-1029,-18,129
12:41:03.299,,-1017,7,132
12:41:03.309,,-968,44,50
12:41:03.319,,-907,72,-261
12:41:03.329,,-1081,21,-82
12:41:03.339,,-1021,10,297
12:41:03.349,,-859,-32,204
12:41:03.359,,-938,-44,127
12:41:03.369,,-1038,-4,78
12:41:03.379,,-1024,5,28
12:41:03.389,,-997,3,-9
12:41:03.399,,-981,5,-32
12:41:03.409,,-997,27,-28
12:41:03.419,,-994,36,-12
12:41:03.429,,-973,6,11
12:41:03.439,,-973,-8,40
12:41:03.449,,-1001,-10,71
12:41:03.459,,-987,-18,98
12:41:03.469,,-995,-21,147
12:41:03.479,,-1078,-47,235
12:41:03.489,,-956,-15,70
12:41:03.499,,-926,-25,-37
12:41:03.509,,-978,-30,-47
12:41:03.519,,-1007,-18,36
12:41:03.529,,-1019,-12,209
12:41:03.539,,-1016,-15,185
12:41:03.549,,-1020,6,71
12:41:03.559,,-1001,13,-82
12:41:03.569,,-962,-14,-109
12:41:03.579,,-965,-26,-74
12:41:03.589,,-980,-21,-37
12:41:03.599,,-979,-13,29
12:41:03.609,,-978,-17,110
12:41:03.619,,-990,-29,146
12:41:03.629,,-1006,-24,101
12:41:03.639,,-1013,-3,58
12:41:03.649,,-1015,0,53
12:41:03.659,,-1009,-7,41
12:41:03.669,,-1016,-17,35
12:41:03.679,,-1019,-26,67
12:41:03.689,,-1003,-19,75
12:41:03.699,,-1002,-11,66
12:41:03.709,,-999,-2,54
12:41:03.719,,-999,-5,17
12:41:03.729,,-995,-16,14
12:41:03.739,,-982,-33,58
12:41:03.749,,-1001,-33,86
12:41:03.759,,-1008,-18,63
12:41:03.769,,-1006,-28,66
12:41:03.779,,-1025,23,4
12:41:03.789,,-998,-62,123
12:41:03.799,,-1020,-32,114
12:41:03.809,,-1009,-15,70
12:41:03.819,,-999,-22,52
12:41:03.829,,-1008,-26,54
12:41:03.839,,-1003,-33,68
12:41:03.849,,-982,-34,73
12:41:03.859,,-973,-45,87
12:41:03.869,,-969,-52,136
12:41:03.879,,-982,-43,161
12:41:03.889,,-990,-43,156
12:41:03.899,,-991,-42,150
12:41:03.909,,-994,-53,120
12:41:03.919,,-1018,-38,97
12:41:03.929,,-1002,-53,114
12:41:03.939,,-979,-66,121
12:41:03.949,,-995,-24,137
12:41:03.959,,-997,-24,167
12:41:03.969,,-993,-48,143
12:41:03.979,,-965,-72,115
12:41:03.989,,-977,-74,196
12:41:03.999,,-966,-94,187
12:41:04.009,,-1008,-76,156
12:41:04.019,,-1031,-48,131
12:41:04.029,,-1013,-34,79
12:41:04.039,,-1003,-43,110
12:41:04.049,,-1002,-38,91
12:41:04.059,,-1010,-37,129
12:41:04.069,,-1004,-9,140
12:41:04.079,,-979,-30,220
12:41:04.089,,-982,-55,212
12:41:04.099,,-997,-55,215
12:41:04.109,,-985,-56,199
12:41:04.119,,-991,-50,167
12:41:04.129,,-990,-43,162
12:41:04.139,,-984,-38,138
12:41:04.149,,-954,-42,139
12:41:04.159,,-939,-46,132
12:41:04.169,,-973,-29,243
12:41:04.179,,-982,-37,219
12:41:04.189,,-996,-61,196
12:41:04.199,,-1016,-66,206
12:41:04.209,,-1006,-88,189
12:41:04.219,,-1008,-82,185
12:41:04.229,,-1009,-83,160
12:41:04.239,,-1015,-76,124
12:41:04.249,,-1015,-73,122
12:41:04.259,,-1015,-55,129
12:41:04.269,,-996,-62,176
12:41:04.279,,-981,-23,155
12:41:04.289,,-997,-5,83
12:41:04.299,,-1013,19,62
12:41:04.309,,-994,-4,83
12:41:04.319,,-973,-23,105
12:41:04.329,,-969,-43,166
12:41:04.339,,-955,-57,202
12:41:04.349,,-958,-48,187
12:41:04.359,,-966,-23,179
12:41:04.369,,-949,-24,188
12:41:04.379,,-958,-23,165
12:41:04.389,,-960,-26,192
12:41:04.399,,-956,-23,188
12:41:04.409,,-961,-19,174
12:41:04.419,,-966,-20,155
12:41:04.429,,-979,-25,162
12:41:04.439,,-989,-26,159
12:41:04.449,,-1001,-22,141
12:41:04.459,,-992,-24,151
12:41:04.469,,-993,-22,141
12:41:04.479,,-1002,-25,159
12:41:04.489,,-989,-43,192
12:41:04.499,,-985,-46,193
12:41:04.509,,-995,-38,165
12:41:04.519,,-993,-32,149
12:41:04.529,,-983,-31,163
12:41:04.539,,-979,-23,174
12:41:04.663,,-974,-29,152
12:41:04.664,,-974,-29,152
12:41:04.665,,-974,-29,152
12:41:04.667,,-974,-29,152
12:41:04.668,,-974,-29,152
12:41:04.670,,-974,-29,152
12:41:04.671,,-975,-34,153
12:41:04.672,,-975,-34,153
12:41:04.674,,-975,-34,153
12:41:04.675,,-975,-34,153
12:41:04.676,,-975,-34,153
12:41:04.678,,-975,-34,153
12:41:04.679,,-975,-34,153
12:41:04.680,,-973,-42,175
12:41:04.689,,-976,-47,193
12:41:04.699,,-987,-49,200
12:41:04.709,,-1000,-45,197
12:41:04.719,,-993,-43,198
12:41:04.729,,-978,-45,217
12:41:04.739,,-968,-45,221
12:41:04.749,,-977,-40,203
12:41:04.759,,-986,-37,189
12:41:04.769,,-971,-41,187
12:41:04.779,,-975,-28,188
12:41:04.789,,-970,-38,176
12:41:04.799,,-969,-35,171
12:41:04.809,,-978,-24,173
12:41:04.819,,-982,-29,185
12:41:04.829,,-979,-35,174
12:41:04.839,,-991,-35,175
12:41:04.849,,-985,-43,183
12:41:04.859,,-979,-56,208
12:41:04.869,,-979,-62,203
12:41:04.879,,-971,-57,184
12:41:04.889,,-964,-45,156
12:41:04.899,,-965,-41,171
12:41:04.909,,-963,-38,180
12:41:04.919,,-972,-37,172
12:41:04.929,,-984,-37,172
12:41:04.939,,-1001,-58,182
12:41:04.949,,-1010,-60,189
12:41:04.959,,-1018,-53,189
12:41:04.969,,-998,-56,199
12:41:04.979,,-979,-50,202
12:41:04.989,,-969,-41,184
12:41:04.999,,-956,-36,166
12:41:05.009,,-951,-33,163
12:41:05.019,,-947,-36,196
12:41:05.029,,-949,-35,200
12:41:05.039,,-958,-33,193
12:41:05.049,,-961,-33,205
12:41:05.059,,-963,-31,200
12:41:05.069,,-965,-28,210
12:41:05.079,,-974,-35,205
12:41:05.089,,-983,-38,184
12:41:05.099,,-988,-45,195
12:41:05.109,,-990,-46,205
12:41:05.119,,-996,-49,204
12:41:05.129,,-998,-46,200
12:41:05.139,,-993,-48,185
12:41:05.149,,-988,-54,183
12:41:05.159,,-978,-51,192
12:41:05.169,,-974,-48,199
12:41:05.179,,-976,-46,200
12:41:05.189,,-981,-41,179
12:41:05.199,,-986,-45,185
12:41:05.209,,-994,-40,181
12:41:05.219,,-1003,-36,185
12:41:05.229,,-995,-40,196
12:41:05.239,,-983,-39,194
12:41:05.249,,-984,-35,174
12:41:05.259,,-993,-30,155
12:41:05.269,,-999,-31,154
12:41:05.279,,-1002,-31,160
12:41:05.289,,-996,-30,167
12:41:05.299,,-991,-27,162
12:41:05.309,,-986,-30,184
12:41:05.319,,-977,-26,179
12:41:05.329,,-971,-21,175
12:41:05.339,,-968,-22,168
12:41:05.349,,-958,-31,189
12:41:05.359,,-958,-36,207
12:41:05.369,,-965,-44,212
12:41:05.379,,-978,-46,209
12:41:05.389,,-986,-45,197
12:41:05.399,,-986,-46,191
12:41:05.409,,-977,-46,190
12:41:05.419,,-974,-43,188
12:41:05.429,,-976,-40,172
12:41:05.439,,-981,-32,163
12:41:05.449,,-984,-34,157
12:41:05.459,,-978,-34,167
12:41:05.469,,-979,-37,163
12:41:05.479,,-984,-38,157
12:41:05.489,,-989,-36,153
12:41:05.499,,-988,-36,151
12:41:05.509,,-984,-35,161
12:41:05.519,,-981,-40,175
12:41:05.529,,-985,-40,164
12:41:05.539,,-993,-39,153
12:41:05.549,,-990,-41,160
12:41:05.559,,-991,-42,158
12:41:05.569,,-1003,-44,146
12:41:05.579,,-1002,-42,148
12:41:05.589,,-981,-36,154
12:41:05.599,,-978,-29,164
12:41:05.609,,-983,-28,159
12:41:05.619,,-984,-25,151
12:41:05.629,,-985,-30,155
12:41:05.639,,-983,-35,162
12:41:05.649,,-984,-35,160
12:41:05.659,,-985,-36,169
12:41:05.669,,-980,-36,173
12:41:05.679,,-982,-34,180
12:41:05.689,,-983,-35,175
12:41:05.699,,-988,-37,170
12:41:05.709,,-983,-35,170
12:41:05.719,,-986,-32,164
12:41:05.729,,-993,-34,160
12:41:05.739,,-997,-33,158
12:41:05.749,,-993,-28,154
12:41:05.759,,-988,-30,159
12:41:05.769,,-975,-29,156
12:41:05.779,,-979,-26,149
12:41:05.789,,-983,-27,152
12:41:05.799,,-979,-31,165
12:41:05.809,,-974,-33,176
12:41:05.819,,-975,-39,178
12:41:05.829,,-984,-40,174
12:41:05.839,,-994,-41,171
12:41:05.849,,-989,-41,165
12:41:05.859,,-987,-38,150
12:41:05.869,,-990,-29,140
12:41:05.879,,-983,-35,147
12:41:05.889,,-981,-30,154
12:41:05.899,,-988,-33,152
12:41:05.909,,-987,-33,157
12:41:05.919,,-987,-38,167
12:41:05.929,,-994,-42,170
12:41:05.939,,-995,-46,167
12:41:05.949,,-992,-45,171
12:41:05.959,,-982,-44,177
12:41:05.969,,-977,-33,157
12:41:05.979,,-979,-37,152
12:41:05.989,,-980,-32,155
12:41:05.999,,-978,-38,156
12:41:06.009,,-986,-35,141
12:41:06.019,,-997,-36,141
12:41:06.029,,-1000,-36,148
12:41:06.039,,-992,-41,159
12:41:06.049,,-988,-38,153
12:41:06.059,,-986,-36,137
12:41:06.188,,-986,-38,155
12:41:06.189,,-986,-38,155
12:41:06.191,,-986,-38,155
12:41:06.192,,-991,-39,157
12:41:06.193,,-991,-39,157
12:41:06.195,,-991,-39,157
12:41:06.196,,-991,-39,157
12:41:06.197,,-991,-39,157
12:41:06.199,,-991,-39,157
12:41:06.200,,-991,-39,157
12:41:06.201,,-991,-37,147
12:41:06.203,,-991,-37,147
12:41:06.204,,-991,-37,147
12:41:06.205,,-991,-37,147
12:41:06.209,,-991,-37,147
12:41:06.219,,-984,-39,157
12:41:06.229,,-979,-35,157
12:41:06.239,,-982,-35,150
12:41:06.249,,-980,-35,146
12:41:06.259,,-984,-36,150
12:41:06.269,,-987,-38,155
12:41:06.279,,-989,-41,157
12:41:06.289,,-990,-42,154
12:41:06.299,,-988,-41,145
12:41:06.309,,-989,-34,134
12:41:06.319,,-982,-36,147
12:41:06.329,,-976,-37,153
12:41:06.339,,-984,-37,154
12:41:06.349,,-992,-41,138
12:41:06.359,,-999,-40,141
12:41:06.369,,-993,-43,146
12:41:06.379,,-986,-44,150
12:41:06.389,,-983,-43,149
12:41:06.399,,-984,-41,141
12:41:06.409,,-992,-36,134
12:41:06.419,,-992,-35,141
12:41:06.429,,-985,-39,161
12:41:06.439,,-984,-39,162
12:41:06.449,,-994,-40,149
12:41:06.459,,-995,-43,146
12:41:06.469,,-992,-40,146
12:41:06.479,,-986,-39,153
12:41:06.489,,-981,-36,142
12:41:06.499,,-975,-37,146
12:41:06.509,,-969,-38,166
12:41:06.519,,-976,-39,164
12:41:06.529,,-985,-43,151
12:41:06.539,,-986,-48,146
12:41:06.549,,-998,-50,130
12:41:06.559,,-1005,-57,130
12:41:06.569,,-1011,-60,127
12:41:06.579,,-1022,-62,108
12:41:06.589,,-1021,-71,125
12:41:06.599,,-1019,-74,140
12:41:06.609,,-1018,-74,129
12:41:06.619,,-1014,-71,116
12:41:06.629,,-1005,-69,117
12:41:06.639,,-1006,-61,108
12:41:06.649,,-1005,-61,116
12:41:06.659,,-1006,-57,122
12:41:06.669,,-1016,-54,119
12:41:06.679,,-1026,-50,121
12:41:06.689,,-1027,-41,123
12:41:06.699,,-1012,-33,132
12:41:06.709,,-992,-22,132
12:41:06.719,,-988,1,131
12:41:06.729,,-971,0,129
12:41:06.739,,-943,11,155
12:41:06.749,,-928,20,173
12:41:06.759,,-934,14,181
12:41:06.769,,-932,-1,187
12:41:06.779,,-936,-15,196
12:41:06.789,,-949,-27,213
12:41:06.799,,-967,-40,219
12:41:06.809,,-976,-43,210
12:41:06.819,,-983,-43,186
12:41:06.829,,-980,-48,196
12:41:06.839,,-976,-44,196
12:41:06.849,,-972,-34,194
12:41:06.859,,-970,-20,190
12:41:06.869,,-972,-19,173
12:41:06.879,,-983,-13,160
12:41:06.889,,-988,-17,160
12:41:06.899,,-992,-14,166
12:41:06.909,,-993,-16,166
12:41:06.919,,-1003,-19,155
12:41:06.929,,-1007,-22,145
12:41:06.939,,-1007,-21,130
12:41:06.949,,-1008,-17,129
12:41:06.959,,-999,-16,133
12:41:06.969,,-983,-10,133
12:41:06.979,,-969,-5,134
12:41:06.989,,-961,-6,130
12:41:06.999,,-973,-2,113
12:41:07.009,,-977,-10,121
12:41:07.019,,-975,-19,137
12:41:07.029,,-976,-23,141
12:41:07.039,,-976,-25,142
12:41:07.049,,-973,-27,146
12:41:07.059,,-973,-27,148
12:41:07.069,,-970,-31,155
12:41:07.079,,-968,-37,160
12:41:07.089,,-970,-41,162
12:41:07.099,,-973,-46,162
12:41:07.109,,-980,-48,169
12:41:07.119,,-989,-51,163
12:41:07.129,,-1001,-56,164
12:41:07.139,,-1003,-57,165
12:41:07.149,,-1006,-55,166
12:41:07.159,,-1007,-55,161
12:41:07.169,,-1013,-47,147
12:41:07.179,,-1012,-42,136
12:41:07.189,,-1004,-37,135
12:41:07.199,,-1001,-29,131
12:41:07.209,,-991,-24,136
12:41:07.219,,-987,-21,133
12:41:07.229,,-995,-19,125
12:41:07.239,,-997,-22,118
12:41:07.249,,-997,-26,128
12:41:07.259,,-1007,-28,121
12:41:07.269,,-1007,-31,117
12:41:07.279,,-1001,-29,129
12:41:07.289,,-1000,-29,129
12:41:07.299,,-998,-28,123
12:41:07.309,,-993,-26,123
12:41:07.319,,-992,-23,125
12:41:07.329,,-993,-21,123
12:41:07.339,,-990,-15,116
12:41:07.349,,-982,-12,123
12:41:07.359,,-973,-8,131
12:41:07.369,,-972,-9,136
12:41:07.379,,-976,-16,154
12:41:07.389,,-980,-21,151
12:41:07.399,,-987,-25,146
12:41:07.409,,-981,-21,144
12:41:07.419,,-970,-23,147
12:41:07.429,,-958,-20,160
12:41:07.439,,-955,-15,157
12:41:07.449,,-963,-11,143
12:41:07.459,,-966,-13,143
12:41:07.469,,-972,-18,158
12:41:07.479,,-981,-28,165
12:41:07.489,,-990,-36,162
12:41:07.499,,-997,-42,155
12:41:07.509,,-1007,-43,137
12:41:07.519,,-1005,-42,129
12:41:07.529,,-990,-40,137
12:41:07.539,,-981,-34,134
12:41:07.549,,-983,-32,129
12:41:07.559,,-987,-31,133
12:41:07.569,,-994,-35,136
12:41:07.692,,-998,-27,123
12:41:07.693,,-998,-27,123
12:41:07.695,,-1001,-28,117
12:41:07.696,,-1001,-28,117
12:41:07.697,,-1001,-28,117
12:41:07.699,,-1001,-28,117
12:41:07.700,,-1001,-28,117
12:41:07.701,,-1001,-28,117
12:41:07.703,,-1001,-28,117
12:41:07.704,,-995,-35,133
12:41:07.705,,-995,-35,133
12:41:07.707,,-995,-35,133
12:41:07.708,,-995,-35,133
12:41:07.710,,-995,-35,133
12:41:07.719,,-995,-39,137
12:41:07.729,,-994,-40,135
12:41:07.739,,-991,-43,140
12:41:07.749,,-994,-38,129
12:41:07.759,,-997,-34,104
12:41:07.769,,-990,-38,133
12:41:07.779,,-989,-38,137
12:41:07.789,,-989,-33,132
12:41:07.799,,-988,-29,111
12:41:07.809,,-985,-20,105
12:41:07.819,,-984,-19,104
12:41:07.829,,-987,-16,99
12:41:07.839,,-989,-19,98
12:41:07.849,,-995,-16,97
12:41:07.859,,-1003,-12,93
12:41:07.869,,-1000,-10,112
12:41:07.879,,-989,-9,121
12:41:07.889,,-984,-7,113
12:41:07.899,,-982,-19,122
12:41:07.909,,-989,-24,126
12:41:07.919,,-993,-28,120
12:41:07.929,,-992,-27,120
12:41:07.939,,-990,-24,123
12:41:07.949,,-986,-25,132
12:41:07.959,,-975,-24,136
12:41:07.969,,-975,-25,132
12:41:07.979,,-983,-25,122
12:41:07.989,,-982,-32,125
12:41:07.999,,-988,-33,125
12:41:08.009,,-997,-34,116
12:41:08.019,,-1005,-30,97
12:41:08.029,,-1000,-23,92
12:41:08.039,,-995,-16,91
12:41:08.049,,-998,-12,100
12:41:08.059,,-1001,-14,106
12:41:08.069,,-1004,-17,94
12:41:08.079,,-1006,-16,97
12:41:08.089,,-994,-20,127
12:41:08.099,,-987,-24,132
12:41:08.109,,-996,-26,123
12:41:08.119,,-993,-30,115
12:41:08.129,,-992,-30,111
12:41:08.139,,-982,-30,119
12:41:08.149,,-970,-30,126
12:41:08.159,,-972,-30,121
12:41:08.169,,-978,-33,120
12:41:08.179,,-984,-36,116
12:41:08.189,,-986,-36,126
12:41:08.199,,-987,-43,139
12:41:08.209,,-999,-44,126
12:41:08.219,,-1008,-43,105
12:41:08.229,,-1006,-36,94
12:41:08.239,,-1007,-33,95
12:41:08.249,,-1005,-31,93
12:41:08.259,,-1006,-32,89
12:41:08.269,,-1008,-25,86
12:41:08.279,,-1003,-22,95
12:41:08.289,,-1000,-21,104
12:41:08.299,,-986,-18,120
12:41:08.309,,-979,-16,121
12:41:08.319,,-978,-18,129
12:41:08.329,,-986,-22,132
12:41:08.339,,-990,-27,134
12:41:08.349,,-986,-28,134
12:41:08.359,,-985,-29,138
12:41:08.369,,-987,-28,135
12:41:08.379,,-984,-22,122
12:41:08.389,,-983,-16,115
12:41:08.399,,-972,-18,121
12:41:08.409,,-982,-17,96
12:41:08.419,,-983,-22,102
12:41:08.429,,-991,-23,97
12:41:08.439,,-998,-24,85
12:41:08.449,,-999,-27,84
12:41:08.459,,-1002,-33,85
12:41:08.469,,-1003,-36,87
12:41:08.479,,-1005,-41,93
12:41:08.489,,-1002,-39,94
12:41:08.499,,-1006,-37,93
12:41:08.509,,-1006,-41,108
12:41:08.519,,-1008,-44,106
12:41:08.529,,-1014,-44,105
12:41:08.539,,-1005,-51,114
12:41:08.549,,-997,-43,109
12:41:08.559,,-986,-37,98
12:41:08.569,,-979,-29,95
12:41:08.579,,-979,-30,92
12:41:08.589,,-994,-33,98
12:41:08.599,,-1004,-40,109
12:41:08.609,,-1008,-43,122
12:41:08.619,,-1007,-44,127
12:41:08.629,,-1003,-38,121
12:41:08.639,,-995,-27,111
12:41:08.649,,-984,-21,109
12:41:08.659,,-978,-16,80
12:41:08.669,,-974,-8,78
12:41:08.679,,-974,-10,84
12:41:08.689,,-978,-14,92
12:41:08.699,,-982,-21,101
12:41:08.709,,-987,-24,100
12:41:08.719,,-993,-24,104
12:41:08.729,,-994,-23,105
12:41:08.739,,-992,-16,112
12:41:08.749,,-981,-17,107
12:41:08.759,,-983,-19,101
12:41:08.769,,-1001,8,113
12:41:08.779,,-988,-19,104
12:41:08.789,,-987,-42,131
12:41:08.799,,-1029,-45,134
12:41:08.809,,-1022,-57,116
12:41:08.819,,-1006,-63,107
12:41:08.829,,-991,-49,103
12:41:08.839,,-962,-19,111
12:41:08.849,,-918,0,112
12:41:08.859,,-896,24,119
12:41:08.869,,-905,31,118
12:41:08.879,,-923,16,126
12:41:08.889,,-950,-12,134
12:41:08.899,,-991,-39,148
12:41:08.909,,-1023,-55,151
12:41:08.919,,-1052,-36,96
12:41:08.929,,-1048,-26,80
12:41:08.939,,-1036,-25,70
12:41:08.949,,-1025,-25,61
12:41:08.959,,-1016,-19,67
12:41:08.969,,-1003,-22,81
12:41:08.979,,-994,-26,98
12:41:08.989,,-986,-28,119
12:41:08.999,,-974,-31,127
12:41:09.009,,-963,-30,125
12:41:09.019,,-951,-30,120
12:41:09.029,,-943,-28,110
12:41:09.039,,-943,-25,101
12:41:09.049,,-949,-25,83
12:41:09.059,,-964,-26,68
12:41:09.069,,-987,-34,49
12:41:09.079,,-1009,-37,47
12:41:09.208,,-967,-35,87
12:41:09.210,,-967,-35,87
12:41:09.211,,-967,-35,87
12:41:09.212,,-967,-35,87
12:41:09.214,,-967,-35,87
12:41:09.215,,-967,-35,87
12:41:09.216,,-968,-33,81
12:41:09.218,,-968,-33,81
12:41:09.219,,-968,-33,81
12:41:09.221,,-968,-33,81
12:41:09.222,,-968,-33,81
12:41:09.223,,-968,-33,81
12:41:09.225,,-968,-33,79
12:41:09.226,,-979,-42,79
12:41:09.229,,-979,-42,79
12:41:09.239,,-989,-50,71
12:41:09.249,,-984,-54,77
12:41:09.259,,-985,-54,96
12:41:09.269,,-994,-58,92
12:41:09.279,,-1003,-64,78
12:41:09.289,,-1004,-67,74
12:41:09.299,,-1007,-65,71
12:41:09.309,,-1011,-66,84
12:41:09.319,,-1002,-68,89
12:41:09.329,,-1003,-67,80
12:41:09.339,,-1004,-63,65
12:41:09.349,,-1002,-62,66
12:41:09.359,,-1000,-65,79
12:41:09.369,,-998,-72,91
12:41:09.379,,-1005,-74,83
12:41:09.389,,-1010,-75,77
12:41:09.399,,-1010,-72,77
12:41:09.409,,-1003,-77,88
12:41:09.419,,-999,-78,79
12:41:09.429,,-1002,-78,66
12:41:09.439,,-1008,-80,62
12:41:09.449,,-1011,-77,66
12:41:09.459,,-1008,-75,60
12:41:09.469,,-1000,-69,51
12:41:09.479,,-1000,-63,41
12:41:09.489,,-998,-64,44
12:41:09.499,,-997,-64,50
12:41:09.509,,-1003,-69,47
12:41:09.519,,-1008,-70,46
12:41:09.529,,-1013,-73,40
12:41:09.539,,-1014,-73,48
12:41:09.549,,-1008,-73,50
12:41:09.559,,-998,-62,65
12:41:09.569,,-986,-56,53
12:41:09.579,,-992,-56,46
12:41:09.589,,-995,-58,55
12:41:09.599,,-996,-60,61
12:41:09.609,,-996,-59,59
12:41:09.619,,-993,-57,65
12:41:09.629,,-985,-60,66
12:41:09.639,,-987,-56,60
12:41:09.649,,-989,-55,58
12:41:09.659,,-996,-57,58
12:41:09.669,,-1000,-58,57
12:41:09.679,,-1002,-61,56
12:41:09.689,,-992,-57,66
12:41:09.699,,-987,-54,65
12:41:09.709,,-991,-52,58
12:41:09.719,,-990,-50,63
12:41:09.729,,-986,-50,67
12:41:09.739,,-984,-48,72
12:41:09.749,,-983,-51,71
12:41:09.759,,-987,-50,75
12:41:09.769,,-988,-48,67
12:41:09.779,,-990,-49,68
12:41:09.789,,-988,-51,73
12:41:09.799,,-988,-49,69
12:41:09.809,,-991,-50,55
12:41:09.819,,-993,-52,55
12:41:09.829,,-992,-55,65
12:41:09.839,,-991,-60,73
12:41:09.849,,-993,-64,74
12:41:09.859,,-996,-61,63
12:41:09.869,,-1002,-62,58
12:41:09.879,,-996,-61,62
12:41:09.889,,-991,-59,68
12:41:09.899,,-985,-59,67
12:41:09.909,,-993,-55,61
12:41:09.919,,-1000,-57,54
12:41:09.929,,-1002,-58,57
12:41:09.939,,-1003,-61,59
12:41:09.949,,-1001,-64,50
12:41:09.959,,-1000,-59,50
12:41:09.969,,-998,-59,44
12:41:09.979,,-997,-58,47
12:41:09.989,,-1001,-59,44
12:41:09.999,,-999,-61,48
12:41:10.009,,-995,-62,59
12:41:10.019,,-989,-63,57
12:41:10.029,,-986,-62,52
12:41:10.039,,-992,-63,48
12:41:10.049,,-995,-64,49
12:41:10.059,,-995,-68,57
12:41:10.069,,-993,-68,62
12:41:10.079,,-995,-65,47
12:41:10.089,,-991,-64,45
12:41:10.099,,-992,-61,45
12:41:10.109,,-996,-62,47
12:41:10.119,,-999,-70,51
12:41:10.129,,-1000,-70,53
12:41:10.139,,-1005,-72,50
12:41:10.149,,-1006,-73,53
12:41:10.159,,-1006,-74,52
12:41:10.169,,-1004,-72,58
12:41:10.179,,-1000,-71,62
12:41:10.189,,-1000,-72,65
12:41:10.199,,-1000,-75,49
12:41:10.209,,-1002,-71,45
12:41:10.219,,-995,-66,51
12:41:10.229,,-995,-66,51
12:41:10.239,,-999,-64,48
12:41:10.249,,-1002,-64,59
12:41:10.259,,-997,-68,65
12:41:10.269,,-996,-67,62
12:41:10.279,,-992,-65,65
12:41:10.289,,-988,-65,68
12:41:10.299,,-991,-63,68
12:41:10.309,,-996,-66,60
12:41:10.319,,-1003,-66,57
12:41:10.329,,-999,-66,62
12:41:10.339,,-1001,-62,60
12:41:10.349,,-996,-63,55
12:41:10.359,,-995,-59,51
12:41:10.369,,-991,-58,50
12:41:10.379,,-993,-58,54
12:41:10.389,,-993,-59,54
12:41:10.399,,-996,-59,49
12:41:10.409,,-992,-61,53
12:41:10.419,,-986,-56,62
12:41:10.429,,-981,-58,63
12:41:10.439,,-985,-57,62
12:41:10.449,,-990,-59,52
12:41:10.459,,-997,-61,56
12:41:10.469,,-999,-61,59
12:41:10.479,,-1000,-63,62
12:41:10.489,,-993,-66,67
12:41:10.499,,-994,-63,57
12:41:10.509,,-997,-59,57
12:41:10.519,,-995,-61,61
12:41:10.529,,-996,-64,64
12:41:10.539,,-995,-65,68
12:41:10.549,,-996,-66,69
12:41:10.559,,-995,-66,70
12:41:10.569,,-993,-66,67
12:41:10.579,,-994,-65,68
12:41:10.589,,-1000,-63,62
12:41:10.599,,-993,-63,59
12:41:10.609,,-996,-64,55
12:41:10.619,,-1000,-61,47
12:41:10.629,,-1001,-61,47
12:41:10.639,,-999,-63,52
12:41:10.761,,-1000,-62,60
12:41:10.763,,-1000,-62,60
12:41:10.764,,-1000,-62,60
12:41:10.765,,-1002,-62,57
12:41:10.767,,-1002,-62,57
12:41:10.768,,-1002,-62,57
12:41:10.770,,-1002,-62,57
12:41:10.771,,-1002,-62,57
12:41:10.772,,-1002,-62,57
12:41:10.774,,-1002,-62,57
12:41:10.775,,-999,-63,57
12:41:10.776,,-999,-63,57
12:41:10.778,,-999,-63,57
12:41:10.779,,-999,-63,57
12:41:10.789,,-996,-60,47
12:41:10.799,,-995,-56,49
12:41:10.809,,-996,-53,47
12:41:10.819,,-997,-55,52
12:41:10.829,,-994,-55,53
12:41:10.839,,-997,-56,46
12:41:10.849,,-996,-57,60
12:41:10.859,,-1001,-63,53
12:41:10.869,,-991,-57,63
12:41:10.879,,-992,-62,54
12:41:10.889,,-999,-62,39
12:41:10.899,,-1010,-62,29
12:41:10.909,,-1017,-55,45
12:41:10.919,,-1015,-54,63
12:41:10.929,,-1019,-47,72
12:41:10.939,,-1007,-45,89
12:41:10.949,,-990,-46,98
12:41:10.959,,-978,-47,98
12:41:10.969,,-978,-47,96
12:41:10.979,,-981,-50,120
12:41:10.989,,-974,-65,128
12:41:10.999,,-975,-64,119
12:41:11.009,,-976,-57,89
12:41:11.019,,-992,-48,59
12:41:11.029,,-1003,-48,51
12:41:11.039,,-1004,-48,64
12:41:11.049,,-996,-43,71
12:41:11.059,,-992,-35,73
12:41:11.069,,-981,-38,90
12:41:11.079,,-975,-39,92
12:41:11.089,,-981,-39,82
12:41:11.099,,-990,-50,75
12:41:11.109,,-990,-52,91
12:41:11.119,,-994,-55,84
12:41:11.129,,-1005,-50,78
12:41:11.139,,-1004,-51,78
12:41:11.149,,-999,-46,80
12:41:11.159,,-995,-42,73
12:41:11.169,,-995,-40,75
12:41:11.179,,-993,-40,72
12:41:11.189,,-996,-38,63
12:41:11.199,,-1000,-36,58
12:41:11.209,,-1000,-40,67
12:41:11.219,,-1002,-38,64
12:41:11.229,,-988,-41,63
12:41:11.239,,-990,-39,58
12:41:11.249,,-992,-40,55
12:41:11.259,,-993,-41,56
12:41:11.269,,-994,-44,60
12:41:11.279,,-994,-45,68
12:41:11.289,,-991,-50,59
12:41:11.299,,-996,-47,56
12:41:11.309,,-995,-43,53
12:41:11.319,,-992,-50,53
12:41:11.329,,-990,-48,57
12:41:11.339,,-989,-54,58
12:41:11.349,,-999,-55,48
12:41:11.359,,-1015,-53,38
12:41:11.369,,-1012,-55,49
12:41:11.379,,-1013,-52,65
12:41:11.389,,-1014,-54,59
12:41:11.399,,-1017,-51,56
12:41:11.409,,-1026,-47,44
12:41:11.419,,-1030,-48,56
12:41:11.429,,-1014,-46,69
12:41:11.439,,-997,-37,76
12:41:11.449,,-993,-36,60
12:41:11.459,,-996,-37,51
12:41:11.469,,-995,-36,58
12:41:11.479,,-990,-41,70
12:41:11.489,,-987,-49,88
12:41:11.499,,-994,-50,81
12:41:11.509,,-986,-45,93
12:41:11.519,,-977,-45,100
12:41:11.529,,-976,-41,102
12:41:11.539,,-975,-44,84
12:41:11.549,,-981,-42,72
12:41:11.559,,-984,-43,65
12:41:11.569,,-984,-43,75
12:41:11.579,,-983,-43,86
12:41:11.589,,-987,-41,74
12:41:11.599,,-1003,-40,54
12:41:11.609,,-1008,-43,57
12:41:11.619,,-1016,-43,68
12:41:11.629,,-1013,-47,67
12:41:11.639,,-1017,-47,70
12:41:11.649,,-1025,-45,70
12:41:11.659,,-1024,-46,62
12:41:11.669,,-1016,-44,60
12:41:11.679,,-1009,-41,68
12:41:11.689,,-999,-40,76
12:41:11.699,,-1001,-26,75
12:41:11.709,,-983,-28,78
12:41:11.719,,-971,-22,86
12:41:11.729,,-967,-17,73
12:41:11.739,,-971,-7,62
12:41:11.749,,-979,-7,75
12:41:11.759,,-982,-9,67
12:41:11.769,,-984,-10,61
12:41:11.779,,-987,-5,63
12:41:11.789,,-992,-7,62
12:41:11.799,,-993,-9,63
12:41:11.809,,-998,-6,63
12:41:11.819,,-999,-12,71
12:41:11.829,,-995,-10,78
12:41:11.839,,-988,-8,84
12:41:11.849,,-981,-7,84
12:41:11.859,,-982,-8,82
12:41:11.869,,-979,-7,75
12:41:11.878,,-999,-7,71
12:41:11.889,,-995,-8,71
12:41:11.899,,-997,-2,77
12:41:11.908,,-1001,0,66
12:41:11.919,,-997,2,59
12:41:11.929,,-995,4,56
12:41:11.938,,-993,-5,64
12:41:11.949,,-1000,-10,60
12:41:11.959,,-1003,-15,78
12:41:11.968,,-1003,-12,81
12:41:11.979,,-1005,-5,78
12:41:11.989,,-1008,-5,68
12:41:11.998,,-990,-7,91
12:41:12.008,,-989,-2,80
12:41:12.018,,-992,0,81
12:41:12.028,,-1014,-31,113
12:41:12.038,,-1039,-44,141
12:41:12.048,,-1014,-18,102
12:41:12.058,,-1001,12,46
12:41:12.068,,-1001,21,25
12:41:12.078,,-1015,16,48
12:41:12.088,,-1007,11,66
12:41:12.098,,-990,19,56
12:41:12.108,,-969,36,35
12:41:12.118,,-965,41,24
12:41:12.128,,-961,39,28
12:41:12.138,,-971,35,39
12:41:12.148,,-992,28,33
12:41:12.158,,-998,17,40
12:41:12.168,,-1003,12,46
12:41:12.178,,-1024,6,47
12:41:12.188,,-1027,-2,48
12:41:12.198,,-1019,4,51
12:41:12.208,,-1001,14,43
12:41:12.339,,-997,15,87
12:41:12.340,,-997,15,87
12:41:12.342,,-1046,16,114
12:41:12.343,,-1046,16,114
12:41:12.345,,-1046,16,114
12:41:12.346,,-1046,16,114
12:41:12.347,,-1046,16,114
12:41:12.349,,-1046,16,114
12:41:12.350,,-1046,16,114
12:41:12.351,,-1074,3,70
12:41:12.353,,-1074,3,70
12:41:12.354,,-1074,3,70
12:41:12.355,,-1074,3,70
12:41:12.357,,-1074,3,70
12:41:12.358,,-1074,3,70
12:41:12.368,,-1018,33,60
12:41:12.378,,-981,60,55
12:41:12.388,,-972,71,63
12:41:12.398,,-979,74,53
12:41:12.408,,-988,77,49
12:41:12.418,,-977,79,41
12:41:12.428,,-975,85,35
12:41:12.438,,-996,76,51
12:41:12.448,,-1008,66,64
12:41:12.458,,-1024,65,62
12:41:12.468,,-1021,66,53
12:41:12.478,,-998,75,53
12:41:12.488,,-976,75,49
12:41:12.498,,-995,120,88
12:41:12.508,,-980,99,95
12:41:12.518,,-978,108,70
12:41:12.528,,-995,119,73
12:41:12.538,,-1011,129,74
12:41:12.548,,-1002,129,80
12:41:12.558,,-1005,133,112
12:41:12.568,,-994,123,121
12:41:12.578,,-985,140,134
12:41:12.588,,-971,154,141
12:41:12.598,,-935,165,124
12:41:12.608,,-925,174,109
12:41:12.618,,-952,188,122
12:41:12.628,,-962,189,140
12:41:12.638,,-950,210,203
12:41:12.648,,-963,212,230
12:41:12.658,,-952,234,242
12:41:12.668,,-940,253,239
12:41:12.678,,-934,280,223
12:41:12.688,,-932,288,208
12:41:12.698,,-914,293,173
12:41:12.708,,-911,272,162
12:41:12.718,,-926,249,155
12:41:12.728,,-927,260,160
12:41:12.738,,-905,272,167
12:41:12.748,,-883,288,174
12:41:12.758,,-904,290,186
12:41:12.768,,-829,257,199
12:41:12.778,,-844,299,205
12:41:12.788,,-877,361,209
12:41:12.798,,-881,399,206
12:41:12.808,,-904,423,201
12:41:12.818,,-920,414,182
12:41:12.828,,-928,431,175
12:41:12.838,,-931,437,190
12:41:12.848,,-904,432,185
12:41:12.858,,-851,407,177
12:41:12.868,,-820,411,181
12:41:12.878,,-805,443,205
12:41:12.888,,-821,457,230
12:41:12.898,,-841,470,205
12:41:12.908,,-841,488,193
12:41:12.918,,-847,518,192
12:41:12.928,,-858,543,216
12:41:12.938,,-870,553,221
12:41:12.948,,-851,542,229
12:41:12.958,,-776,572,206
12:41:12.968,,-742,647,222
12:41:12.978,,-876,555,287
12:41:12.988,,-832,535,239
12:41:12.998,,-800,564,245
12:41:13.008,,-761,561,249
12:41:13.018,,-748,539,191
12:41:13.028,,-733,553,185
12:41:13.038,,-696,612,209
12:41:13.048,,-660,639,194
12:41:13.058,,-671,659,203
12:41:13.068,,-722,681,255
12:41:13.078,,-778,672,315
12:41:13.088,,-797,680,322
12:41:13.098,,-737,654,233
12:41:13.108,,-720,652,187
12:41:13.118,,-738,661,221
12:41:13.128,,-724,695,240
12:41:13.138,,-670,753,251
12:41:13.148,,-660,767,254
12:41:13.158,,-643,741,223
12:41:13.168,,-615,748,221
12:41:13.178,,-616,763,209
12:41:13.188,,-665,736,179
12:41:13.198,,-673,696,170
12:41:13.208,,-692,671,181
12:41:13.218,,-693,675,201
12:41:13.228,,-665,688,205
12:41:13.238,,-627,718,206
12:41:13.248,,-607,738,191
12:41:13.258,,-581,753,191
12:41:13.268,,-572,767,195
12:41:13.278,,-551,782,222
12:41:13.288,,-558,787,222
12:41:13.298,,-547,791,221
12:41:13.308,,-568,777,224
12:41:13.318,,-607,749,221
12:41:13.328,,-608,733,209
12:41:13.338,,-576,756,213
12:41:13.348,,-539,792,236
12:41:13.358,,-511,804,251
12:41:13.368,,-477,807,241
12:41:13.378,,-455,814,218
12:41:13.388,,-467,815,197
12:41:13.398,,-509,814,195
12:41:13.408,,-523,816,202
12:41:13.418,,-485,801,194
12:41:13.428,,-544,807,191
12:41:13.438,,-536,853,202
12:41:13.448,,-500,884,224
12:41:13.458,,-498,865,239
12:41:13.468,,-477,843,215
12:41:13.478,,-424,845,199
12:41:13.488,,-404,869,184
12:41:13.498,,-402,883,179
12:41:13.508,,-403,869,180
12:41:13.518,,-422,859,149
12:41:13.528,,-413,871,182
12:41:13.538,,-381,837,217
12:41:13.548,,-326,760,179
12:41:13.558,,-347,780,137
12:41:13.568,,-371,805,117
12:41:13.578,,-376,865,139
12:41:13.588,,-380,902,186
12:41:13.598,,-382,916,206
12:41:13.608,,-378,902,209
12:41:13.618,,-360,883,200
12:41:13.628,,-320,905,177
12:41:13.638,,-330,927,185
12:41:13.648,,-369,942,211
12:41:13.658,,-379,913,193
12:41:13.668,,-230,845,231
12:41:13.678,,-175,804,228
12:41:13.688,,-183,788,209
12:41:13.698,,-206,820,183
12:41:13.708,,-211,858,158
12:41:13.718,,-212,894,159
12:41:13.728,,-199,942,168
12:41:13.738,,-175,999,182
12:41:13.890,,-91,939,226
12:41:13.891,,-89,955,236
12:41:13.893,,-89,955,236
12:41:13.894,,-89,955,236
12:41:13.895,,-89,955,236
12:41:13.897,,-89,955,236
12:41:13.898,,-89,955,236
12:41:13.899,,-89,955,236
12:41:13.901,,-91,970,229
12:41:13.902,,-91,970,229
12:41:13.903,,-91,970,229
12:41:13.905,,-91,970,229
12:41:13.906,,-91,970,229
12:41:13.907,,-91,970,229
12:41:13.909,,-91,970,229
12:41:13.910,,-91,987,208
12:41:13.912,,-91,987,208
12:41:13.918,,-91,987,208
12:41:13.928,,-64,992,133
12:41:13.938,,-70,991,58
12:41:13.948,,-94,984,5
12:41:13.958,,-107,983,-18
12:41:13.968,,-91,986,-27
12:41:13.978,,-92,991,-5
12:41:13.988,,-100,991,30
12:41:13.998,,-92,994,70
12:41:14.008,,-75,993,92
12:41:14.018,,-53,998,95
12:41:14.028,,-41,995,93
12:41:14.038,,-11,1004,97
12:41:14.048,,2,1008,51
12:41:14.058,,5,996,21
12:41:14.068,,-27,978,13
12:41:14.078,,-92,1005,29
12:41:14.088,,-112,1018,35
12:41:14.098,,-69,1002,62
12:41:14.108,,-9,990,71
12:41:14.118,,19,987,83
12:41:14.128,,0,969,103
12:41:14.138,,-10,966,112
12:41:14.148,,-2,965,114
12:41:14.158,,10,967,127
12:41:14.168,,30,975,132
12:41:14.178,,48,1018,86
12:41:14.188,,-1,1037,51
12:41:14.198,,-18,1062,20
12:41:14.208,,-17,1052,-4
12:41:14.218,,-20,1046,34
12:41:14.228,,5,1056,66
12:41:14.238,,0,1053,49
12:41:14.248,,-24,1060,48
12:41:14.258,,-8,1057,64
12:41:14.268,,38,1016,151
12:41:14.278,,80,974,221
12:41:14.288,,82,957,183
12:41:14.298,,23,962,115
12:41:14.308,,-32,969,2
12:41:14.318,,-25,987,90
12:41:14.328,,24,984,154
12:41:14.338,,36,953,191
12:41:14.348,,10,961,202
12:41:14.358,,0,974,177
12:41:14.368,,-35,980,124
12:41:14.378,,-30,981,114
12:41:14.388,,-11,989,143
12:41:14.398,,1,1003,142
12:41:14.408,,-11,1021,115
12:41:14.418,,-5,1021,89
12:41:14.428,,14,1012,109
12:41:14.438,,26,945,121
12:41:14.448,,11,949,97
12:41:14.458,,-10,962,98
12:41:14.468,,-7,983,157
12:41:14.478,,5,982,124
12:41:14.488,,3,969,121
12:41:14.498,,12,945,168
12:41:14.508,,-2,957,147
12:41:14.518,,-21,988,143
12:41:14.528,,-8,996,140
12:41:14.538,,-17,974,153
12:41:14.548,,-47,973,167
12:41:14.558,,-46,970,164
12:41:14.568,,-38,953,168
12:41:14.578,,-32,976,99
12:41:14.588,,-40,981,12
12:41:14.598,,-60,982,71
12:41:14.608,,-53,1003,130
12:41:14.618,,-46,1032,129
12:41:14.628,,-54,1022,120
12:41:14.638,,-83,1013,155
12:41:14.648,,-96,983,185
12:41:14.658,,-91,952,164
12:41:14.668,,-70,957,178
12:41:14.678,,-99,981,176
12:41:14.688,,-84,999,107
12:41:14.698,,-89,983,145
12:41:14.708,,-63,932,134
12:41:14.718,,-103,946,241
12:41:14.728,,-53,941,218
12:41:14.738,,-91,972,238
12:41:14.748,,-106,1001,229
12:41:14.758,,-102,1018,203
12:41:14.768,,-78,997,123
12:41:14.778,,-57,982,27
12:41:14.788,,-61,966,47
12:41:14.798,,-72,964,129
12:41:14.808,,-76,958,166
12:41:14.818,,-77,968,162
12:41:14.828,,-63,988,81
12:41:14.838,,-70,1000,92
12:41:14.848,,-47,1042,66
12:41:14.858,,-61,1068,66
12:41:14.868,,-83,1067,107
12:41:14.878,,-90,1019,137
12:41:14.888,,-76,994,94
12:41:14.898,,-73,975,73
12:41:14.908,,-69,970,88
12:41:14.918,,-69,978,117
12:41:14.928,,-71,987,122
12:41:14.938,,-84,1004,139
12:41:14.948,,-90,998,135
12:41:14.958,,-64,998,82
12:41:14.968,,-62,1002,98
12:41:14.978,,-60,1000,114
12:41:14.988,,-68,987,126
12:41:14.998,,-54,992,115
12:41:15.008,,-43,985,66
12:41:15.018,,-34,967,68
12:41:15.028,,-39,949,96
12:41:15.038,,-40,949,114
12:41:15.048,,-40,970,116
12:41:15.058,,-38,1006,90
12:41:15.068,,-42,1041,90
12:41:15.078,,-33,1039,96
12:41:15.088,,-26,999,61
12:41:15.098,,-14,976,71
12:41:15.108,,-10,960,81
12:41:15.118,,-12,952,80
12:41:15.128,,-17,960,89
12:41:15.138,,-25,972,114
12:41:15.148,,-23,991,97
12:41:15.158,,-16,1002,95
12:41:15.168,,-14,989,119
12:41:15.178,,-27,971,149
12:41:15.188,,-24,967,170
12:41:15.198,,-9,961,146
12:41:15.208,,-7,972,92
12:41:15.218,,-7,984,82
12:41:15.228,,-8,986,82
12:41:15.238,,-11,1007,99
12:41:15.248,,-18,1030,99
12:41:15.258,,6,1047,70
12:41:15.268,,15,1022,48
12:41:15.278,,6,995,40
12:41:15.288,,5,997,78
12:41:15.298,,2,989,108
12:41:15.308,,-6,965,133
12:41:15.318,,-4,960,141
12:41:15.328,,6,970,140
12:41:15.338,,19,974,82
12:41:15.348,,34,965,57
12:41:15.506,,45,958,86
12:41:15.507,,45,958,86
12:41:15.508,,45,958,86
12:41:15.510,,45,958,86
12:41:15.511,,45,958,86
12:41:15.512,,45,958,86
12:41:15.514,,45,958,86
12:41:15.515,,48,953,94
12:41:15.516,,48,953,94
12:41:15.518,,48,953,94
12:41:15.519,,48,953,94
12:41:15.521,,48,953,94
12:41:15.522,,48,953,94
12:41:15.523,,48,953,77
12:41:15.525,,52,950,77
12:41:15.526,,52,950,77
12:41:15.527,,52,950,77
12:41:15.529,,52,950,77
12:41:15.538,,48,954,54
12:41:15.548,,49,965,66
12:41:15.558,,48,970,84
12:41:15.568,,44,965,82
12:41:15.578,,50,970,73
12:41:15.588,,52,976,98
12:41:15.598,,62,973,97
12:41:15.608,,67,973,55
12:41:15.618,,74,966,46
12:41:15.628,,72,964,59
12:41:15.638,,74,962,68
12:41:15.648,,73,957,80
12:41:15.658,,65,961,89
12:41:15.668,,60,965,97
12:41:15.678,,57,965,101
12:41:15.688,,60,977,75
12:41:15.698,,61,984,77
12:41:15.708,,55,995,89
12:41:15.718,,52,1008,99
12:41:15.728,,45,1001,107
12:41:15.738,,51,986,110
12:41:15.748,,57,973,107
12:41:15.758,,63,972,101
12:41:15.768,,68,971,93
12:41:15.778,,70,971,76
12:41:15.788,,74,976,64
12:41:15.798,,75,972,55
12:41:15.808,,73,971,60
12:41:15.818,,75,971,75
12:41:15.828,,73,976,77
12:41:15.838,,77,974,70
12:41:15.848,,73,990,48
12:41:15.858,,69,989,53
12:41:15.868,,72,979,60
12:41:15.878,,68,971,58
12:41:15.888,,68,969,61
12:41:15.898,,68,970,62
12:41:15.908,,66,967,71
12:41:15.918,,63,976,66
12:41:15.928,,68,979,52
12:41:15.938,,61,983,63
12:41:15.948,,58,984,83
12:41:15.958,,53,983,90
12:41:15.968,,54,993,87
12:41:15.978,,53,991,101
12:41:15.988,,55,982,92
12:41:15.998,,56,979,88
12:41:16.008,,60,970,91
12:41:16.018,,61,962,81
12:41:16.028,,66,956,66
12:41:16.038,,66,963,58
12:41:16.048,,59,970,66
12:41:16.058,,58,984,73
12:41:16.068,,53,990,76
12:41:16.078,,51,994,86
12:41:16.088,,47,1006,82
12:41:16.098,,46,1012,83
12:41:16.108,,52,1003,77
12:41:16.118,,55,990,75
12:41:16.128,,60,982,66
12:41:16.138,,63,974,70
12:41:16.148,,65,971,75
12:41:16.158,,64,978,68
12:41:16.168,,67,985,60
12:41:16.178,,64,990,76
12:41:16.188,,60,991,86
12:41:16.198,,62,990,82
12:41:16.208,,64,989,78
12:41:16.218,,66,982,76
12:41:16.228,,72,974,68
12:41:16.238,,73,970,50
12:41:16.248,,73,972,49
12:41:16.258,,75,978,62
12:41:16.268,,71,988,63
12:41:16.278,,73,997,56
12:41:16.288,,70,1000,57
12:41:16.298,,71,996,65
12:41:16.308,,72,988,66
12:41:16.318,,72,982,67
12:41:16.328,,70,976,74
12:41:16.338,,72,970,69
12:41:16.348,,73,971,68
12:41:16.358,,68,973,96
12:41:16.368,,64,972,90
12:41:16.378,,68,978,82
12:41:16.388,,65,980,90
12:41:16.398,,67,976,91
12:41:16.408,,67,975,78
12:41:16.418,,66,983,86
12:41:16.428,,63,988,88
12:41:16.438,,64,984,89
12:41:16.448,,65,977,97
12:41:16.458,,65,977,89
12:41:16.468,,67,976,82
12:41:16.478,,67,970,86
12:41:16.488,,67,979,69
12:41:16.498,,64,986,72
12:41:16.508,,63,993,76
12:41:16.518,,61,996,73
12:41:16.528,,62,1002,59
12:41:16.538,,65,990,59
12:41:16.548,,67,986,57
12:41:16.558,,70,984,48
12:41:16.568,,73,983,52
12:41:16.578,,72,973,58
12:41:16.588,,68,965,65
12:41:16.598,,70,967,67
12:41:16.608,,66,979,69
12:41:16.618,,66,1008,62
12:41:16.628,,62,1004,70
12:41:16.638,,63,1001,75
12:41:16.648,,64,992,82
12:41:16.658,,69,978,90
12:41:16.668,,72,967,68
12:41:16.678,,77,965,53
12:41:16.688,,78,973,54
12:41:16.698,,75,978,62
12:41:16.708,,74,977,65
12:41:16.718,,73,974,74
12:41:16.728,,68,984,86
12:41:16.738,,66,992,91
12:41:16.748,,70,986,61
12:41:16.758,,73,982,71
12:41:16.768,,69,979,81
12:41:16.778,,71,976,79
12:41:16.788,,68,974,74
12:41:16.798,,63,979,83
12:41:16.808,,65,984,77
12:41:16.818,,65,987,75
12:41:16.828,,64,988,92
12:41:16.838,,63,988,93
12:41:16.848,,66,987,86
12:41:16.858,,67,991,76
12:41:16.868,,72,991,65
12:41:16.878,,71,988,66
12:41:16.888,,68,985,73
12:41:16.898,,68,977,62
12:41:16.908,,68,982,73
12:41:16.918,,66,985,84
12:41:16.928,,71,987,68
12:41:16.938,,75,981,42
12:41:16.948,,75,980,54
12:41:16.958,,73,983,69
12:41:16.968,,73,984,63
12:41:16.978,,72,989,53
12:41:16.988,,72,985,74
12:41:16.998,,70,984,88
12:41:17.008,,75,975,53
12:41:17.018,,75,979,61
12:41:17.028,,77,980,71
12:41:17.038,,76,985,66
12:41:17.048,,73,986,73
12:41:17.198,,79,969,65
12:41:17.200,,79,969,65
12:41:17.201,,79,969,65
12:41:17.202,,81,973,51
12:41:17.204,,81,973,51
12:41:17.205,,81,973,51
12:41:17.206,,81,973,51
12:41:17.208,,81,973,51
12:41:17.209,,81,973,51
12:41:17.211,,81,973,51
12:41:17.212,,82,975,56
12:41:17.213,,82,975,56
12:41:17.215,,82,975,56
12:41:17.216,,82,975,56
12:41:17.217,,82,975,56
12:41:17.219,,82,975,56
12:41:17.220,,82,975,56
12:41:17.228,,78,976,64
12:41:17.238,,80,985,56
12:41:17.248,,81,990,61
12:41:17.258,,76,990,83
12:41:17.268,,78,985,71
12:41:17.278,,80,983,53
12:41:17.288,,84,978,61
12:41:17.298,,83,968,59
12:41:17.308,,85,968,45
12:41:17.318,,82,984,36
12:41:17.328,,77,991,70
12:41:17.338,,74,986,77
12:41:17.348,,77,990,81
12:41:17.358,,71,1002,91
12:41:17.368,,73,1000,83
12:41:17.378,,77,988,55
12:41:17.388,,80,965,56
12:41:17.398,,84,967,46
12:41:17.408,,82,966,62
12:41:17.418,,78,972,73
12:41:17.428,,77,987,62
12:41:17.438,,77,1002,61
12:41:17.448,,73,1000,71
12:41:17.458,,78,994,55
12:41:17.468,,78,992,58
12:41:17.478,,77,986,77
12:41:17.488,,77,976,83
12:41:17.498,,78,969,71
12:41:17.508,,80,975,52
12:41:17.518,,78,989,34
12:41:17.528,,77,987,33
12:41:17.538,,84,986,54
12:41:17.548,,80,985,62
12:41:17.558,,77,990,77
12:41:17.568,,73,992,72
12:41:17.578,,76,986,52
12:41:17.588,,80,976,58
12:41:17.598,,84,963,61
12:41:17.608,,85,955,48
12:41:17.618,,83,964,67
12:41:17.628,,78,976,84
12:41:17.638,,76,984,74
12:41:17.648,,71,1009,52
12:41:17.658,,72,1002,65
12:41:17.668,,75,992,47
12:41:17.678,,79,982,42
12:41:17.688,,78,973,57
12:41:17.698,,79,962,64
12:41:17.708,,80,970,49
12:41:17.718,,77,981,50
12:41:17.728,,73,992,48
12:41:17.738,,72,999,50
12:41:17.748,,73,1005,62
12:41:17.758,,71,999,71
12:41:17.768,,73,990,55
12:41:17.778,,79,969,57
12:41:17.788,,78,959,67
12:41:17.798,,78,971,63
12:41:17.808,,78,982,50
12:41:17.818,,78,984,34
12:41:17.828,,79,986,42
12:41:17.838,,82,990,41
12:41:17.848,,78,990,48
12:41:17.858,,77,988,67
12:41:17.868,,74,991,67
12:41:17.878,,76,988,57
12:41:17.888,,79,979,36
12:41:17.898,,86,969,30
12:41:17.908,,87,959,30
12:41:17.918,,84,968,43
12:41:17.928,,78,970,46
12:41:17.938,,76,977,44
12:41:17.948,,77,983,40
12:41:17.958,,80,986,39
12:41:17.968,,78,991,35
12:41:17.978,,77,986,39
12:41:17.988,,71,980,51
12:41:17.998,,73,981,58
12:41:18.008,,74,984,50
12:41:18.018,,76,982,39
12:41:18.028,,73,985,51
12:41:18.038,,71,998,52
12:41:18.048,,70,996,65
12:41:18.058,,67,990,69
12:41:18.068,,66,993,53
12:41:18.078,,70,992,48
12:41:18.088,,69,986,37
12:41:18.098,,74,983,44
12:41:18.108,,70,985,57
12:41:18.118,,70,987,55
12:41:18.128,,72,983,39
12:41:18.138,,69,983,46
12:41:18.148,,69,985,53
12:41:18.158,,66,989,51
12:41:18.168,,70,986,28
12:41:18.178,,74,979,29
12:41:18.188,,74,977,36
12:41:18.198,,74,979,45
12:41:18.208,,69,978,49
12:41:18.218,,72,981,35
12:41:18.228,,72,982,34
12:41:18.238,,73,986,49
12:41:18.248,,72,986,47
12:41:18.258,,71,984,37
12:41:18.268,,69,980,52
12:41:18.278,,70,982,33
12:41:18.288,,71,976,49
12:41:18.298,,75,972,19
12:41:18.308,,71,974,18
12:41:18.318,,65,979,47
12:41:18.328,,60,989,59
12:41:18.338,,56,1000,57
12:41:18.348,,56,1004,51
12:41:18.358,,58,996,39
12:41:18.368,,66,984,22
12:41:18.378,,67,972,35
12:41:18.388,,65,970,52
12:41:18.398,,67,967,33
12:41:18.408,,65,977,15
12:41:18.418,,60,999,16
12:41:18.428,,61,1002,0
12:41:18.438,,59,1008,32
12:41:18.448,,53,1004,60
12:41:18.458,,54,995,62
12:41:18.468,,55,991,36
12:41:18.478,,56,993,43
12:41:18.488,,57,986,56
12:41:18.498,,58,989,46
12:41:18.508,,60,995,11
12:41:18.518,,59,993,7
12:41:18.528,,58,989,48
12:41:18.538,,55,987,62
12:41:18.548,,57,983,48
12:41:18.558,,59,974,56
12:41:18.568,,65,971,32
12:41:18.578,,68,970,5
12:41:18.588,,69,973,27
12:41:18.598,,66,976,40
12:41:18.608,,68,981,5
12:41:18.618,,65,988,8
12:41:18.628,,61,989,54
12:41:18.638,,57,991,80
12:41:18.648,,59,989,62
12:41:18.658,,60,983,33
12:41:18.668,,61,979,31
12:41:18.678,,65,976,25
12:41:18.688,,66,985,-8
12:41:18.698,,65,992,2
12:41:18.708,,64,992,35
12:41:18.718,,62,989,29
12:41:18.728,,60,986,-1
12:41:18.738,,58,986,22
12:41:18.748,,61,985,34
12:41:18.904,,55,999,12
12:41:18.906,,55,999,12
12:41:18.907,,55,999,12
12:41:18.908,,55,999,12
12:41:18.910,,60,988,12
12:41:18.911,,60,988,12
12:41:18.912,,60,988,12
12:41:18.914,,60,988,12
12:41:18.915,,60,988,12
12:41:18.917,,60,988,12
12:41:18.918,,60,988,12
12:41:18.919,,60,983,41
12:41:18.921,,60,983,41
12:41:18.922,,60,983,41
12:41:18.923,,60,983,41
12:41:18.925,,60,983,41
12:41:18.926,,60,983,41
12:41:18.928,,60,981,39
12:41:18.938,,60,978,25
12:41:18.948,,61,978,16
12:41:18.958,,66,975,-1
12:41:18.968,,70,972,17
12:41:18.978,,65,977,35
12:41:18.988,,58,987,47
12:41:18.998,,54,994,39
12:41:19.008,,52,998,57
12:41:19.018,,50,996,65
12:41:19.028,,58,986,47
12:41:19.038,,55,978,16
12:41:19.048,,55,979,25
12:41:19.058,,62,968,0
12:41:19.068,,60,970,20
12:41:19.078,,58,986,9
12:41:19.088,,58,1001,0
12:41:19.098,,54,1001,17
12:41:19.108,,52,996,40
12:41:19.118,,53,1002,49
12:41:19.128,,52,994,50
12:41:19.138,,53,990,50
12:41:19.148,,55,982,9
12:41:19.158,,66,978,-45
12:41:19.168,,64,973,-23
12:41:19.178,,64,969,18
12:41:19.188,,50,987,32
12:41:19.198,,46,1004,57
12:41:19.208,,47,1012,63
12:41:19.218,,50,1013,46
12:41:19.228,,53,1007,30
12:41:19.238,,58,993,24
12:41:19.248,,64,978,-7
12:41:19.258,,66,968,-40
12:41:19.268,,67,967,6
12:41:19.278,,61,970,41
12:41:19.288,,59,978,26
12:41:19.298,,55,989,16
12:41:19.308,,49,992,37
12:41:19.318,,54,999,38
12:41:19.328,,52,993,28
12:41:19.338,,53,992,30
12:41:19.348,,56,987,11
12:41:19.358,,63,971,11
12:41:19.368,,64,962,0
12:41:19.378,,64,965,23
12:41:19.388,,63,966,36
12:41:19.398,,58,978,14
12:41:19.408,,58,996,19
12:41:19.418,,54,1005,32
12:41:19.428,,52,1005,28
12:41:19.438,,52,1007,33
12:41:19.448,,52,988,7
12:41:19.458,,55,986,20
12:41:19.468,,54,979,19
12:41:19.478,,63,965,1
12:41:19.488,,63,964,-4
12:41:19.498,,63,972,16
12:41:19.508,,64,980,0
12:41:19.518,,61,985,-18
12:41:19.528,,60,995,5
12:41:19.538,,54,1003,14
12:41:19.548,,55,1004,16
12:41:19.558,,52,1002,0
12:41:19.568,,53,993,32
12:41:19.578,,53,991,28
12:41:19.588,,54,986,21
12:41:19.598,,55,984,32
12:41:19.608,,56,977,5
12:41:19.618,,61,978,-22
12:41:19.628,,59,975,3
12:41:19.638,,58,978,28
12:41:19.648,,57,979,18
12:41:19.658,,51,985,12
12:41:19.668,,54,988,38
12:41:19.678,,52,987,48
12:41:19.688,,54,990,35
12:41:19.698,,55,996,-13
12:41:19.708,,56,988,-8
12:41:19.718,,57,981,17
12:41:19.728,,54,976,9
12:41:19.738,,58,976,6
12:41:19.748,,53,981,13
12:41:19.758,,55,984,29
12:41:19.768,,50,993,20
12:41:19.778,,52,997,17
12:41:19.788,,52,998,16
12:41:19.798,,49,995,16
12:41:19.808,,51,992,-8
12:41:19.818,,53,987,-19
12:41:19.828,,53,979,17
12:41:19.838,,55,974,12
12:41:19.848,,52,979,-23
12:41:19.858,,54,986,0
12:41:19.868,,56,985,27
12:41:19.878,,56,989,9
12:41:19.888,,53,996,-7
12:41:19.898,,51,995,18
12:41:19.908,,51,992,40
12:41:19.918,,53,989,25
12:41:19.928,,51,987,0
12:41:19.938,,54,989,12
12:41:19.948,,54,979,23
12:41:19.958,,61,966,-21
12:41:19.968,,57,967,24
12:41:19.978,,51,974,39
12:41:19.988,,48,986,12
12:41:19.998,,43,1001,8
12:41:20.008,,43,1006,27
12:41:20.018,,43,1006,27
12:41:20.028,,48,1008,-12
12:41:20.038,,48,1002,-14
12:41:20.048,,49,992,16
12:41:20.058,,53,978,19
12:41:20.068,,50,968,4
12:41:20.078,,50,959,8
12:41:20.088,,50,959,13
12:41:20.098,,45,964,20
12:41:20.108,,44,976,25
12:41:20.118,,35,988,23
12:41:20.128,,37,1010,25
12:41:20.138,,32,1023,16
12:41:20.148,,32,1019,17
12:41:20.158,,31,1009,17
12:41:20.168,,29,1001,6
12:41:20.178,,36,992,0
12:41:20.188,,37,970,11
12:41:20.198,,43,950,17
12:41:20.208,,42,953,27
12:41:20.218,,34,985,27
12:41:20.228,,28,1006,11
12:41:20.238,,31,1019,4
12:41:20.248,,22,1016,-6
12:41:20.258,,26,1014,1
12:41:20.268,,27,1007,1
12:41:20.278,,27,990,17
12:41:20.288,,29,976,27
12:41:20.298,,29,971,8
12:41:20.308,,34,977,-10
12:41:20.318,,33,982,-2
12:41:20.328,,35,982,5
12:41:20.338,,30,1003,22
12:41:20.348,,24,1005,24
12:41:20.358,,23,1004,32
12:41:20.368,,22,995,35
12:41:20.378,,26,987,32
12:41:20.388,,31,984,14
12:41:20.398,,30,978,-7
12:41:20.408,,33,978,5
12:41:20.418,,35,985,13
12:41:20.428,,34,988,11
12:41:20.438,,30,989,28
12:41:20.448,,29,996,35
12:41:20.601,,20,992,36
12:41:20.602,,20,992,36
12:41:20.604,,20,992,36
12:41:20.605,,20,992,36
12:41:20.606,,20,992,24
12:41:20.608,,31,984,24
12:41:20.609,,31,984,24
12:41:20.611,,31,984,24
12:41:20.612,,31,984,24
12:41:20.613,,31,984,24
12:41:20.615,,31,984,24
12:41:20.616,,37,983,-15
12:41:20.617,,37,983,-15
12:41:20.619,,37,983,-15
12:41:20.620,,37,983,-15
12:41:20.621,,37,983,-15
12:41:20.623,,37,983,-15
12:41:20.628,,36,986,-8
12:41:20.638,,31,981,7
12:41:20.648,,30,986,18
12:41:20.658,,25,989,35
12:41:20.668,,27,991,53
12:41:20.678,,26,985,60
12:41:20.688,,30,980,52
12:41:20.698,,29,975,39
12:41:20.708,,33,974,43
12:41:20.718,,34,979,4
12:41:20.728,,34,981,27
12:41:20.738,,26,986,55
12:41:20.748,,23,996,45
12:41:20.758,,21,997,35
12:41:20.768,,23,993,56
12:41:20.778,,28,986,60
12:41:20.788,,28,978,44
12:41:20.798,,28,979,44
12:41:20.808,,26,981,53
12:41:20.818,,26,979,61
12:41:20.828,,25,983,30
12:41:20.838,,26,983,5
12:41:20.848,,29,990,35
12:41:20.858,,24,1001,20
12:41:20.868,,21,998,29
12:41:20.878,,20,1001,65
12:41:20.888,,19,1000,66
12:41:20.898,,20,995,43
12:41:20.908,,20,990,55
12:41:20.918,,21,985,70
12:41:20.928,,24,983,48
12:41:20.938,,26,980,37
12:41:20.948,,26,983,53
