Sensors' Acquisition [Hz]: Acc@104.0 
hh:mm:ss.ms, Annotation , AccX [mg], AccY, AccZ
17:17:20.470,,-304,-330,-778
17:17:20.480,,-296,-337,-859
17:17:20.490,,-310,-366,-916
17:17:20.500,,-339,-437,-1069
17:17:20.510,,-384,-470,-1164
17:17:20.520,,-359,-510,-1224
17:17:20.530,,-351,-576,-1257
17:17:20.540,,-399,-593,-1328
17:17:20.550,,-406,-609,-1422
17:17:20.560,>Gesture,,,
17:17:20.561,,-400,-668,-1471
17:17:20.570,,-419,-710,-1491
17:17:20.580,,-449,-709,-1476
17:17:20.590,,-509,-695,-1466
17:17:20.600,,-562,-676,-1480
17:17:20.610,,-548,-648,-1442
17:17:20.620,,-593,-638,-1448
17:17:20.630,,-620,-577,-1355
17:17:20.640,,-606,-527,-1290
17:17:20.650,,-595,-506,-1258
17:17:20.660,,-622,-490,-1222
17:17:20.670,,-610,-457,-1173
17:17:20.680,,-599,-404,-1142
17:17:20.690,,-565,-338,-1085
17:17:20.700,,-521,-268,-1036
17:17:20.710,,-481,-268,-927
17:17:20.720,,-455,-195,-930
17:17:20.730,,-413,-144,-859
17:17:20.740,,-374,-102,-789
17:17:20.750,,-345,-87,-688
17:17:20.760,,-358,-75,-608
17:17:20.770,,-371,-60,-521
17:17:20.780,,-334,-44,-403
17:17:20.790,,-309,27,-329
17:17:20.800,,-313,87,-223
17:17:20.810,,-309,138,-174
17:17:20.820,,-299,165,-95
17:17:20.830,,-272,147,-80
17:17:20.840,,-265,69,-81
17:17:20.850,,-262,8,-57
17:17:20.860,,-245,-29,0
17:17:20.870,,-255,-79,73
17:17:20.880,,-281,-26,329
17:17:20.890,,-371,141,436
17:17:20.900,,-405,191,497
17:17:20.910,,-393,195,476
17:17:20.920,,-347,188,381
17:17:20.930,,-311,153,309
17:17:20.940,,-333,77,289
17:17:20.950,,-387,9,392
17:17:20.960,,-424,-31,526
17:17:20.970,,-464,-11,725
17:17:20.980,,-526,77,910
17:17:20.990,,-593,139,1006
17:17:21.000,,-641,171,1009
17:17:21.010,,-635,14,1088
17:17:21.020,,-671,-15,1239
17:17:21.030,,-788,-14,1421
17:17:21.040,,-890,-55,1554
17:17:21.050,,-953,-78,1708
17:17:21.060,,-1024,-66,1833
17:17:21.070,,-1092,-33,1935
17:17:21.080,,-1139,-11,1997
17:17:21.090,,-1160,-8,1998
17:17:21.100,,-1166,-15,1998
17:17:21.110,,-1180,0,1998
17:17:21.120,,-1184,31,1998
17:17:21.130,,-1213,67,1994
17:17:21.140,,-1156,207,1850
17:17:21.150,,-1099,265,1739
17:17:21.160,,-1078,315,1640
17:17:21.170,,-1049,375,1585
17:17:21.180,,-1035,438,1550
17:17:21.190,,-985,457,1501
17:17:21.200,,-960,494,1450
17:17:21.210,,-927,551,1374
17:17:21.220,,-864,606,1264
17:17:21.230,,-805,619,1139
17:17:21.240,,-754,599,1053
17:17:21.250,,-753,628,983
17:17:21.260,,-743,637,882
17:17:21.270,,-706,632,822
17:17:21.280,,-701,610,837
17:17:21.290,,-717,564,862
17:17:21.300,,-705,520,834
17:17:21.310,,-673,500,750
17:17:21.320,,-629,450,673
17:17:21.330,,-620,404,556
17:17:21.340,,-610,382,462
17:17:21.350,,-593,364,374
17:17:21.360,,-582,338,310
17:17:21.370,,-587,326,264
17:17:21.380,,-601,361,269
17:17:21.390,,-598,367,282
17:17:21.400,,-568,265,255
17:17:21.410,,-584,197,210
17:17:21.420,,-596,140,161
17:17:21.430,,-571,88,117
17:17:21.440,,-544,31,35
17:17:21.450,,-539,8,-52
17:17:21.460,,-516,1,-109
17:17:21.470,,-492,6,-158
17:17:21.480,,-475,56,-211
17:17:21.490,,-483,123,-252
17:17:21.500,,-451,82,-269
17:17:21.510,,-409,20,-314
17:17:21.520,,-432,-11,-434
17:17:21.530,,-449,-102,-486
17:17:21.540,,-398,-158,-526
17:17:21.550,,-392,-184,-620
17:17:21.560,,-315,-188,-671
17:17:21.570,,-288,-158,-793
17:17:21.580,,-286,-116,-881
17:17:21.590,,-284,-115,-971
17:17:21.600,,-311,-197,-1053
17:17:21.610,,-320,-298,-1074
17:17:21.620,,-327,-360,-1116
17:17:21.630,,-319,-413,-1154
17:17:21.640,,-319,-504,-1213
17:17:21.650,,-321,-631,-1377
17:17:21.660,,-319,-641,-1406
17:17:21.670,,-298,-634,-1426
17:17:21.680,,-309,-615,-1454
17:17:21.690,,-348,-575,-1467
17:17:21.700,,-351,-559,-1432
17:17:21.710,,-359,-535,-1344
17:17:21.720,,-374,-479,-1278
17:17:21.730,,-364,-443,-1221
17:17:21.740,,-388,-406,-1187
17:17:21.750,,-404,-357,-1177
17:17:21.760,,-406,-319,-1179
17:17:21.770,,-418,-314,-1163
17:17:21.780,,-385,-329,-1120
17:17:21.790,,-372,-306,-1118
17:17:21.800,,-330,-276,-1108
17:17:21.810,,-271,-205,-1153
17:17:21.820,,-282,-168,-1142
17:17:21.830,,-270,-153,-1103
17:17:21.840,,-258,-192,-1019
17:17:21.850,,-278,-237,-938
17:17:21.860,,-300,-267,-834
17:17:21.870,,-267,-243,-760
17:17:21.993,,-390,20,121
17:17:21.994,,-364,-2,220
17:17:21.995,,-364,-2,220
17:17:21.997,,-364,-2,220
17:17:21.998,,-364,-2,220
17:17:21.999,,-364,-2,220
17:17:22.001,,-364,-2,220
17:17:22.002,,-364,-2,220
17:17:22.003,,-374,-37,316
17:17:22.005,,-374,-37,316
17:17:22.006,,-374,-37,316
17:17:22.007,,-374,-37,316
17:17:22.009,,-374,-37,316
17:17:22.010,,-374,-37,316
17:17:22.020,,-390,-92,447
17:17:22.030,,-407,-129,532
17:17:22.040,,-507,-3,671
17:17:22.050,,-560,46,712
17:17:22.060,,-565,56,707
17:17:22.070,,-559,47,721
17:17:22.080,,-585,1,804
17:17:22.090,,-629,-22,971
17:17:22.100,,-681,-25,1104
17:17:22.110,,-740,-14,1257
17:17:22.120,,-799,50,1327
17:17:22.130,,-876,87,1329
17:17:22.140,,-905,95,1303
17:17:22.150,,-895,100,1281
17:17:22.160,,-918,88,1449
17:17:22.170,,-1040,48,1573
17:17:22.180,,-1139,17,1639
17:17:22.190,,-1186,-2,1728
17:17:22.200,,-1218,16,1838
17:17:22.210,,-1212,51,1858
17:17:22.220,,-1219,108,1897
17:17:22.230,,-1218,149,1845
17:17:22.240,,-1179,155,1847
17:17:22.250,,-1185,170,1824
17:17:22.260,,-1181,173,1827
17:17:22.270,,-1167,264,1757
17:17:22.280,,-1157,341,1684
17:17:22.290,,-1114,404,1560
17:17:22.300,,-1066,425,1545
17:17:22.310,,-1081,489,1566
17:17:22.320,,-1045,511,1544
17:17:22.330,,-1019,530,1515
17:17:22.340,,-967,534,1430
17:17:22.350,,-899,545,1333
17:17:22.360,,-879,572,1215
17:17:22.370,,-828,580,1110
17:17:22.380,,-792,567,1016
17:17:22.390,,-748,549,908
17:17:22.400,,-698,494,837
17:17:22.410,,-688,489,744
17:17:22.420,,-659,458,616
17:17:22.430,,-616,425,540
17:17:22.440,,-535,396,439
17:17:22.450,,-494,384,286
17:17:22.460,,-525,379,188
17:17:22.470,,-535,380,158
17:17:22.480,,-541,368,124
17:17:22.490,,-594,379,142
17:17:22.500,,-635,346,217
17:17:22.510,,-664,296,269
17:17:22.520,,-654,258,217
17:17:22.530,,-593,236,155
17:17:22.540,,-523,180,95
17:17:22.550,,-400,104,-97
17:17:22.560,,-379,86,-181
17:17:22.570,,-403,39,-223
17:17:22.580,,-416,-46,-245
17:17:22.590,,-414,-119,-282
17:17:22.600,,-370,-153,-266
17:17:22.610,,-301,-182,-267
17:17:22.620,,-352,-181,-322
17:17:22.630,,-324,-119,-311
17:17:22.640,,-288,-24,-322
17:17:22.650,,-211,30,-332
17:17:22.660,,-230,104,-434
17:17:22.670,,-217,72,-458
17:17:22.680,,-250,-195,-603
17:17:22.690,,-189,-314,-686
17:17:22.700,,-197,-387,-817
17:17:22.710,,-182,-396,-928
17:17:22.720,,-161,-366,-1037
17:17:22.730,,-124,-337,-1083
17:17:22.740,,-151,-319,-1101
17:17:22.750,,-208,-296,-1149
17:17:22.760,,-263,-329,-1160
17:17:22.770,,-301,-436,-1149
17:17:22.780,,-342,-546,-1173
17:17:22.790,,-376,-685,-1217
17:17:22.800,,-419,-815,-1303
17:17:22.810,,-491,-1041,-1383
17:17:22.820,,-493,-1085,-1461
17:17:22.830,,-487,-1089,-1511
17:17:22.840,,-462,-1029,-1558
17:17:22.850,,-464,-961,-1637
17:17:22.860,,-469,-934,-1658
17:17:22.870,,-403,-940,-1693
17:17:22.880,,-352,-883,-1664
17:17:22.890,,-348,-798,-1608
17:17:22.900,,-318,-691,-1534
17:17:22.910,,-292,-592,-1468
17:17:22.920,,-274,-496,-1355
17:17:22.930,,-293,-368,-1087
17:17:22.940,,-300,-318,-929
17:17:22.950,,-351,-253,-872
17:17:22.960,,-356,-201,-760
17:17:22.970,,-328,-202,-722
17:17:22.980,,-297,-244,-694
17:17:22.990,,-270,-262,-678
17:17:23.000,,-257,-237,-644
17:17:23.010,,-259,-191,-636
17:17:23.020,,-218,-150,-604
17:17:23.030,,-202,-96,-528
17:17:23.040,,-261,-17,-409
17:17:23.050,,-312,51,-260
17:17:23.060,,-346,32,-170
17:17:23.070,,-350,-23,-163
17:17:23.080,,-354,-64,-196
17:17:23.090,,-362,-69,-196
17:17:23.100,,-348,-48,-194
17:17:23.110,,-353,2,-206
17:17:23.120,,-361,91,-162
17:17:23.130,,-386,145,-34
17:17:23.140,,-439,125,152
17:17:23.150,,-507,30,316
17:17:23.160,,-549,-69,421
17:17:23.170,,-560,-149,453
17:17:23.180,,-545,-162,428
17:17:23.190,,-585,-12,186
17:17:23.200,,-582,40,54
17:17:23.210,,-557,75,-7
17:17:23.220,,-556,93,140
17:17:23.230,,-579,45,373
17:17:23.240,,-612,19,605
17:17:23.250,,-676,10,789
17:17:23.260,,-728,10,850
17:17:23.270,,-705,-11,757
17:17:23.280,,-703,96,483
17:17:23.290,,-653,206,265
17:17:23.300,,-645,317,103
17:17:23.310,,-656,404,281
17:17:23.320,,-832,509,1207
17:17:23.330,,-1043,393,1763
17:17:23.340,,-1277,213,1997
17:17:23.457,,-1433,33,1747
17:17:23.458,,-1433,33,1747
17:17:23.459,,-1399,60,1665
17:17:23.461,,-1399,60,1665
17:17:23.462,,-1399,60,1665
17:17:23.463,,-1399,60,1665
17:17:23.465,,-1399,60,1665
17:17:23.466,,-1399,60,1665
17:17:23.467,,-1399,60,1665
17:17:23.469,,-1341,88,1556
17:17:23.470,,-1341,88,1556
17:17:23.472,,-1341,88,1556
17:17:23.473,,-1341,88,1556
17:17:23.480,,-1293,134,1451
17:17:23.490,,-1228,218,1336
17:17:23.500,,-1145,254,1221
17:17:23.510,,-1035,303,1076
17:17:23.520,,-976,365,972
17:17:23.530,,-944,386,937
17:17:23.540,,-898,426,941
17:17:23.550,,-890,440,897
17:17:23.560,,-864,449,902
17:17:23.570,,-876,502,836
17:17:23.580,,-811,504,761
17:17:23.590,,-734,467,639
17:17:23.600,,-672,444,521
17:17:23.610,,-630,369,506
17:17:23.620,,-660,305,534
17:17:23.630,,-696,258,599
17:17:23.640,,-712,180,669
17:17:23.650,,-742,131,697
17:17:23.660,,-727,115,731
17:17:23.670,,-695,76,700
17:17:23.680,,-657,27,591
17:17:23.690,,-626,29,472
17:17:23.700,,-580,38,274
17:17:23.710,,-570,78,248
17:17:23.720,,-582,95,224
17:17:23.730,,-537,32,224
17:17:23.740,,-513,-15,196
17:17:23.750,,-498,-62,158
17:17:23.760,,-494,-92,85
17:17:23.770,,-453,-140,23
17:17:23.780,,-393,-199,-171
17:17:23.790,,-322,-196,-276
17:17:23.800,,-305,-132,-358
17:17:23.810,,-280,-91,-376
17:17:23.820,,-256,-67,-469
17:17:23.830,,-198,-28,-532
17:17:23.840,,-209,-17,-572
17:17:23.850,,-216,-21,-596
17:17:23.860,,-208,-74,-665
17:17:23.870,,-161,-122,-761
17:17:23.880,,-145,-153,-865
17:17:23.890,,-124,-201,-980
17:17:23.900,,-75,-256,-1088
17:17:23.910,,-16,-306,-1162
17:17:23.920,,15,-356,-1185
17:17:23.930,,-31,-412,-1236
17:17:23.940,,-39,-514,-1307
17:17:23.950,,-23,-659,-1377
17:17:23.960,,-38,-844,-1530
17:17:23.970,,-56,-866,-1557
17:17:23.980,,-83,-861,-1562
17:17:23.990,,-127,-874,-1563
17:17:24.000,,-190,-906,-1485
17:17:24.010,,-201,-968,-1542
17:17:24.020,,-261,-1021,-1477
17:17:24.030,,-278,-1046,-1451
17:17:24.040,,-236,-1096,-1446
17:17:24.050,,-220,-1072,-1456
17:17:24.060,,-238,-996,-1425
17:17:24.070,,-231,-909,-1370
17:17:24.080,,-214,-853,-1314
17:17:24.090,,-189,-705,-1134
17:17:24.100,,-163,-585,-1066
17:17:24.110,,-142,-462,-996
17:17:24.120,,-162,-361,-925
17:17:24.130,,-153,-335,-873
17:17:24.140,,-163,-350,-814
17:17:24.150,,-181,-356,-755
17:17:24.160,,-189,-353,-723
17:17:24.170,,-206,-375,-681
17:17:24.180,,-206,-346,-682
17:17:24.190,,-183,-315,-628
17:17:24.200,,-177,-300,-649
17:17:24.210,,-136,-229,-496
17:17:24.220,,-176,-61,-383
17:17:24.230,,-232,-91,-268
17:17:24.240,,-291,-132,-201
17:17:24.250,,-298,-163,-147
17:17:24.260,,-318,-169,-126
17:17:24.270,,-326,-122,-85
17:17:24.280,,-292,-52,9
17:17:24.290,,-293,-30,110
17:17:24.300,,-308,12,176
17:17:24.310,,-347,76,213
17:17:24.320,,-339,69,234
17:17:24.330,,-330,78,242
17:17:24.340,,-352,13,484
17:17:24.350,,-471,-3,618
17:17:24.360,,-497,-18,654
17:17:24.370,,-547,-16,657
17:17:24.380,,-604,32,591
17:17:24.390,,-642,133,512
17:17:24.400,,-673,209,473
17:17:24.410,,-695,207,497
17:17:24.420,,-723,126,627
17:17:24.430,,-724,32,728
17:17:24.440,,-761,13,826
17:17:24.450,,-840,25,941
17:17:24.460,,-909,63,1046
17:17:24.470,,-976,178,1088
17:17:24.480,,-973,231,1093
17:17:24.490,,-978,249,1094
17:17:24.500,,-1034,230,1172
17:17:24.510,,-1076,204,1271
17:17:24.520,,-1113,190,1434
17:17:24.530,,-1190,187,1634
17:17:24.540,,-1251,175,1746
17:17:24.550,,-1282,220,1817
17:17:24.560,,-1321,288,1811
17:17:24.570,,-1321,257,1801
17:17:24.580,,-1275,218,1811
17:17:24.590,,-1287,210,1832
17:17:24.600,,-1289,276,1801
17:17:24.610,,-1274,313,1741
17:17:24.620,,-1247,376,1662
17:17:24.630,,-1234,418,1608
17:17:24.640,,-1182,449,1504
17:17:24.650,,-1106,445,1423
17:17:24.660,,-1073,466,1327
17:17:24.670,,-1058,473,1275
17:17:24.680,,-1011,486,1197
17:17:24.690,,-980,477,1142
17:17:24.700,,-973,460,1138
17:17:24.710,,-944,442,1079
17:17:24.720,,-909,373,1038
17:17:24.730,,-858,283,953
17:17:24.740,,-833,253,860
17:17:24.750,,-781,206,806
17:17:24.760,,-754,173,779
17:17:24.770,,-761,159,774
17:17:24.780,,-740,196,707
17:17:24.790,,-716,216,592
17:17:24.800,,-664,219,485
17:17:24.921,,-400,-90,-287
17:17:24.923,,-400,-90,-287
17:17:24.924,,-400,-90,-318
17:17:24.925,,-379,-72,-318
17:17:24.927,,-379,-72,-318
17:17:24.928,,-379,-72,-318
17:17:24.930,,-379,-72,-318
17:17:24.931,,-379,-72,-318
17:17:24.932,,-379,-72,-318
17:17:24.934,,-379,-55,-354
17:17:24.935,,-385,-55,-354
17:17:24.936,,-385,-55,-354
17:17:24.938,,-385,-55,-354
17:17:24.940,,-385,-55,-354
17:17:24.950,,-376,-59,-362
17:17:24.960,,-338,-52,-382
17:17:24.970,,-313,-44,-358
17:17:24.980,,-301,-1,-379
17:17:24.990,,-237,62,-407
17:17:25.000,,-207,-8,-472
17:17:25.010,,-174,-87,-540
17:17:25.020,,-130,-108,-573
17:17:25.030,,-135,-96,-612
17:17:25.040,,-142,-117,-647
17:17:25.050,,-120,-144,-672
17:17:25.060,,-109,-158,-690
17:17:25.070,,-117,-141,-691
17:17:25.080,,-101,-163,-679
17:17:25.090,,-89,-173,-701
17:17:25.100,,-116,-190,-716
17:17:25.110,,-167,-352,-813
17:17:25.120,,-205,-451,-876
17:17:25.130,,-201,-605,-850
17:17:25.140,,-316,-756,-1154
17:17:25.150,,-295,-889,-1042
17:17:25.160,,-309,-1051,-1342
17:17:25.170,,-296,-1162,-1472
17:17:25.180,,-274,-1241,-1589
17:17:25.190,,-299,-1372,-1686
17:17:25.200,,-309,-1442,-1773
17:17:25.210,,-293,-1443,-1849
17:17:25.220,,-266,-1405,-1885
17:17:25.230,,-242,-1326,-1944
17:17:25.240,,-214,-1123,-1892
17:17:25.250,,-206,-997,-1769
17:17:25.260,,-213,-868,-1639
17:17:25.270,,-246,-751,-1504
17:17:25.280,,-269,-647,-1393
17:17:25.290,,-279,-546,-1292
17:17:25.300,,-305,-504,-1201
17:17:25.310,,-329,-466,-1081
17:17:25.320,,-322,-471,-1018
17:17:25.330,,-291,-462,-972
17:17:25.340,,-295,-437,-945
17:17:25.350,,-262,-397,-940
17:17:25.360,,-221,-345,-896
17:17:25.370,,-203,-309,-817
17:17:25.380,,-167,-277,-717
17:17:25.390,,-136,-237,-633
17:17:25.400,,-124,-252,-490
17:17:25.410,,-132,-198,-386
17:17:25.420,,-168,-167,-294
17:17:25.430,,-178,-212,-220
17:17:25.440,,-214,-215,-190
17:17:25.450,,-223,-167,-173
17:17:25.460,,-198,-102,-176
17:17:25.470,,-164,-58,-180
17:17:25.480,,-157,-4,-147
17:17:25.490,,-170,29,-54
17:17:25.500,,-201,-83,107
17:17:25.510,,-212,-94,156
17:17:25.520,,-231,-74,164
17:17:25.530,,-268,-42,169
17:17:25.540,,-281,23,173
17:17:25.550,,-294,63,191
17:17:25.560,,-321,79,249
17:17:25.570,,-335,75,366
17:17:25.580,,-355,93,483
17:17:25.590,,-398,156,556
17:17:25.600,,-451,215,615
17:17:25.610,,-481,252,613
17:17:25.620,,-503,271,598
17:17:25.630,,-585,281,635
17:17:25.640,,-633,266,732
17:17:25.650,,-668,208,859
17:17:25.660,,-690,150,978
17:17:25.670,,-754,194,1071
17:17:25.680,,-808,233,1250
17:17:25.690,,-870,274,1300
17:17:25.700,,-930,314,1324
17:17:25.710,,-967,375,1296
17:17:25.720,,-1009,393,1306
17:17:25.730,,-1053,398,1396
17:17:25.740,,-1146,353,1505
17:17:25.750,,-1183,304,1716
17:17:25.760,,-1281,321,1834
17:17:25.770,,-1301,369,1897
17:17:25.780,,-1333,375,1924
17:17:25.790,,-1312,385,1871
17:17:25.800,,-1282,413,1822
17:17:25.810,,-1256,464,1756
17:17:25.820,,-1219,496,1695
17:17:25.830,,-1215,542,1679
17:17:25.840,,-1157,598,1612
17:17:25.850,,-1147,652,1537
17:17:25.860,,-1127,686,1486
17:17:25.870,,-1104,712,1479
17:17:25.880,,-1039,669,1426
17:17:25.890,,-982,634,1381
17:17:25.900,,-917,588,1269
17:17:25.910,,-886,581,1175
17:17:25.920,,-846,552,1087
17:17:25.930,,-813,518,998
17:17:25.940,,-810,490,991
17:17:25.950,,-805,438,1008
17:17:25.960,,-790,396,991
17:17:25.970,,-776,382,967
17:17:25.980,,-739,374,934
17:17:25.990,,-709,365,875
17:17:26.000,,-668,335,804
17:17:26.010,,-586,190,628
17:17:26.020,,-540,156,541
17:17:26.030,,-502,129,456
17:17:26.040,,-479,123,352
17:17:26.050,,-444,124,286
17:17:26.060,,-452,133,230
17:17:26.070,,-424,105,225
17:17:26.080,,-406,108,182
17:17:26.090,,-384,92,140
17:17:26.100,,-360,12,66
17:17:26.110,,-312,-48,-36
17:17:26.120,,-266,-76,-135
17:17:26.130,,-245,-67,-225
17:17:26.140,,-177,-8,-307
17:17:26.150,,-228,2,-428
17:17:26.160,,-208,-20,-388
17:17:26.170,,-210,-53,-427
17:17:26.180,,-186,-31,-448
17:17:26.190,,-182,-28,-456
17:17:26.200,,-202,-53,-478
17:17:26.210,,-197,-68,-485
17:17:26.220,,-233,-111,-490
17:17:26.230,,-210,-170,-519
17:17:26.240,,-159,-200,-586
17:17:26.250,,-168,-215,-655
17:17:26.365,,-182,-919,-1369
17:17:26.367,,-182,-919,-1369
17:17:26.368,,-182,-919,-1369
17:17:26.369,,-182,-919,-1369
17:17:26.371,,-182,-919,-1369
17:17:26.372,,-212,-921,-1531
17:17:26.374,,-212,-921,-1531
17:17:26.375,,-212,-921,-1531
17:17:26.376,,-212,-921,-1531
17:17:26.378,,-212,-921,-1531
17:17:26.379,,-212,-921,-1531
17:17:26.380,,-212,-921,-1601
17:17:26.382,,-202,-996,-1601
17:17:26.390,,-202,-1041,-1633
17:17:26.400,,-180,-1116,-1665
17:17:26.410,,-195,-1173,-1669
17:17:26.420,,-201,-1119,-1758
17:17:26.430,,-188,-1119,-1812
17:17:26.440,,-142,-1102,-1882
17:17:26.450,,-114,-1094,-1927
17:17:26.460,,-104,-1041,-1924
17:17:26.470,,-98,-960,-1842
17:17:26.480,,-109,-864,-1689
17:17:26.490,,-124,-739,-1556
17:17:26.500,,-148,-640,-1450
17:17:26.510,,-154,-578,-1349
17:17:26.520,,-164,-494,-1239
17:17:26.530,,-185,-462,-1170
17:17:26.540,,-209,-419,-1077
17:17:26.550,,-217,-396,-990
17:17:26.560,,-193,-423,-878
17:17:26.570,,-202,-412,-831
17:17:26.580,,-193,-412,-808
17:17:26.590,,-181,-435,-799
17:17:26.600,,-187,-476,-777
17:17:26.610,,-187,-459,-746
17:17:26.620,,-179,-384,-671
17:17:26.630,,-132,-321,-581
17:17:26.640,,-128,-265,-467
17:17:26.650,,-166,-211,-304
17:17:26.660,,-185,-187,-290
17:17:26.670,,-197,-180,-261
17:17:26.680,,-204,-142,-240
17:17:26.690,,-223,-84,-192
17:17:26.700,,-192,-26,-141
17:17:26.710,,-179,51,-31
17:17:26.720,,-185,114,139
17:17:26.730,,-181,179,250
17:17:26.740,,-230,215,279
17:17:26.750,,-305,211,323
17:17:26.760,,-342,166,303
17:17:26.770,,-352,131,237
17:17:26.780,,-366,109,175
17:17:26.790,,-436,142,191
17:17:26.800,,-451,198,286
17:17:26.810,,-450,283,393
17:17:26.820,,-449,353,526
17:17:26.830,,-496,421,631
17:17:26.840,,-479,421,648
17:17:26.850,,-443,356,537
17:17:26.860,,-436,308,443
17:17:26.870,,-450,279,326
17:17:26.880,,-413,258,328
17:17:26.890,,-420,257,422
17:17:26.900,,-480,292,762
17:17:26.910,,-514,377,855
17:17:26.920,,-553,422,874
17:17:26.930,,-552,450,845
17:17:26.940,,-556,516,819
17:17:26.950,,-600,610,929
17:17:26.960,,-612,600,1124
17:17:26.970,,-605,558,1332
17:17:26.980,,-575,437,1577
17:17:26.990,,-606,281,1931
17:17:27.000,,-836,345,1998
17:17:27.010,,-1020,522,1998
17:17:27.020,,-1088,582,1998
17:17:27.030,,-1080,574,1998
17:17:27.040,,-1106,589,1998
17:17:27.050,,-1068,561,1998
17:17:27.060,,-1010,545,1997
17:17:27.070,,-977,582,1894
17:17:27.080,,-915,655,1728
17:17:27.090,,-874,749,1655
17:17:27.100,,-879,778,1618
17:17:27.110,,-869,801,1583
17:17:27.120,,-827,814,1528
17:17:27.130,,-793,821,1478
17:17:27.140,,-777,801,1405
17:17:27.150,,-732,776,1331
17:17:27.160,,-700,806,1155
17:17:27.170,,-647,864,1089
17:17:27.180,,-640,899,1064
17:17:27.190,,-618,907,1080
17:17:27.200,,-623,868,1152
17:17:27.210,,-615,792,1186
17:17:27.220,,-593,725,1157
17:17:27.230,,-574,656,1081
17:17:27.240,,-526,605,994
17:17:27.250,,-483,595,915
17:17:27.260,,-469,585,860
17:17:27.270,,-445,552,814
17:17:27.280,,-414,545,780
17:17:27.290,,-381,488,676
17:17:27.300,,-354,459,590
17:17:27.310,,-328,406,505
17:17:27.320,,-282,315,452
17:17:27.330,,-273,272,404
17:17:27.340,,-260,266,369
17:17:27.350,,-253,260,312
17:17:27.360,,-251,241,258
17:17:27.370,,-235,212,227
17:17:27.380,,-212,169,185
17:17:27.390,,-229,200,132
17:17:27.400,,-222,231,7
17:17:27.410,,-197,109,-90
17:17:27.420,,-84,-125,-252
17:17:27.430,,-38,-112,-382
17:17:27.440,,-56,-51,-466
17:17:27.450,,-101,-41,-525
17:17:27.460,,-116,-35,-545
17:17:27.470,,-118,-8,-591
17:17:27.480,,-150,50,-688
17:17:27.490,,-174,80,-749
17:17:27.500,,-139,-20,-758
17:17:27.510,,-139,-130,-806
17:17:27.520,,-124,-192,-816
17:17:27.530,,-163,-212,-837
17:17:27.540,,-210,-231,-797
17:17:27.550,,-369,-343,-716
17:17:27.560,,-429,-427,-679
17:17:27.570,,-506,-541,-652
17:17:27.580,,-559,-600,-683
17:17:27.590,,-558,-641,-749
17:17:27.600,,-604,-713,-866
17:17:27.610,,-713,-873,-977
17:17:27.620,,-739,-1036,-1053
17:17:27.630,,-784,-1136,-1142
17:17:27.640,,-881,-1266,-1222
17:17:27.650,,-890,-1416,-1196
17:17:27.660,,-919,-1463,-1366
17:17:27.670,,-946,-1479,-1485
17:17:27.680,,-839,-1448,-1515
17:17:27.690,,-769,-1376,-1548
17:17:27.810,,-341,-384,-494
17:17:27.811,,-341,-384,-494
17:17:27.813,,-341,-384,-494
17:17:27.814,,-341,-384,-494
17:17:27.815,,-341,-384,-494
17:17:27.817,,-341,-384,-494
17:17:27.818,,-341,-384,-471
17:17:27.819,,-295,-310,-471
17:17:27.821,,-295,-310,-471
17:17:27.822,,-295,-310,-471
17:17:27.824,,-295,-310,-471
17:17:27.825,,-295,-310,-471
17:17:27.826,,-295,-310,-471
17:17:27.830,,-274,-242,-450
17:17:27.840,,-241,-214,-417
17:17:27.850,,-234,-256,-355
17:17:27.860,,-250,-273,-308
17:17:27.870,,-283,-212,-215
17:17:27.880,,-223,-206,-175
17:17:27.890,,-219,-185,-94
17:17:27.900,,-227,-128,0
17:17:27.910,,-233,-27,26
17:17:27.920,,-260,44,51
17:17:27.930,,-227,-26,-33
17:17:27.940,,-239,-86,-70
17:17:27.950,,-279,-120,-100
17:17:27.960,,-298,-129,-101
17:17:27.970,,-333,-136,-57
17:17:27.980,,-323,-138,2
17:17:27.990,,-297,-62,87
17:17:28.000,,-325,76,181
17:17:28.010,,-358,161,223
17:17:28.020,,-335,200,219
17:17:28.030,,-344,205,220
17:17:28.040,,-359,202,245
17:17:28.050,,-365,196,309
17:17:28.060,,-424,179,424
17:17:28.070,,-453,187,479
17:17:28.080,,-484,264,534
17:17:28.090,,-520,358,613
17:17:28.100,,-526,385,697
17:17:28.110,,-525,381,740
17:17:28.120,,-536,389,787
17:17:28.130,,-549,413,835
17:17:28.140,,-587,426,865
17:17:28.150,,-630,465,910
17:17:28.160,,-658,541,967
17:17:28.170,,-694,595,965
17:17:28.180,,-711,649,999
17:17:28.190,,-786,681,1168
17:17:28.200,,-840,662,1323
17:17:28.210,,-956,694,1391
17:17:28.220,,-1027,687,1542
17:17:28.230,,-1069,693,1633
17:17:28.240,,-1132,733,1688
17:17:28.250,,-1171,764,1798
17:17:28.260,,-1224,769,1854
17:17:28.270,,-1264,754,1919
17:17:28.280,,-1261,751,1952
17:17:28.290,,-1311,712,1998
17:17:28.300,,-1283,725,1998
17:17:28.310,,-1247,737,1889
17:17:28.320,,-1160,844,1787
17:17:28.330,,-1094,901,1666
17:17:28.340,,-1038,926,1546
17:17:28.350,,-975,909,1475
17:17:28.360,,-944,919,1417
17:17:28.370,,-918,915,1390
17:17:28.380,,-880,902,1329
17:17:28.390,,-834,897,1247
17:17:28.400,,-790,897,1150
17:17:28.410,,-747,889,1062
17:17:28.420,,-714,880,987
17:17:28.430,,-668,858,946
17:17:28.440,,-644,817,920
17:17:28.450,,-598,783,934
17:17:28.460,,-593,757,949
17:17:28.470,,-598,739,961
17:17:28.480,,-581,725,942
17:17:28.490,,-556,737,938
17:17:28.500,,-509,733,877
17:17:28.510,,-452,693,738
17:17:28.520,,-368,635,624
17:17:28.530,,-262,482,536
17:17:28.539,,-161,229,466
17:17:28.550,,-193,98,391
17:17:28.560,,-239,68,328
17:17:28.569,,-184,-70,259
17:17:28.580,,-221,-95,163
17:17:28.590,,-219,-74,99
17:17:28.599,,-220,-28,47
17:17:28.610,,-172,-5,-19
17:17:28.620,,-97,-26,-63
17:17:28.629,,-92,-56,-103
17:17:28.640,,-125,-95,-167
17:17:28.650,,-92,-157,-225
17:17:28.659,,-62,-213,-289
17:17:28.670,,-68,-231,-349
17:17:28.679,,-60,-200,-393
17:17:28.689,,-47,-154,-436
17:17:28.700,,-58,-117,-477
17:17:28.709,,-78,-95,-483
17:17:28.719,,-88,-41,-498
17:17:28.730,,-94,30,-504
17:17:28.739,,-110,13,-494
17:17:28.749,,-103,-74,-464
17:17:28.760,,-68,-163,-445
17:17:28.769,,-72,-210,-504
17:17:28.779,,-111,-327,-597
17:17:28.790,,-184,-440,-701
17:17:28.799,,-150,-570,-824
17:17:28.809,,-73,-708,-967
17:17:28.820,,-103,-795,-1132
17:17:28.829,,-125,-961,-1422
17:17:28.839,,-137,-1212,-1386
17:17:28.849,,-212,-1396,-1449
17:17:28.859,,-315,-1596,-1559
17:17:28.869,,-314,-1757,-1577
17:17:28.879,,-273,-1770,-1666
17:17:28.889,,-252,-1726,-1827
17:17:28.899,,-219,-1652,-1984
17:17:28.909,,-177,-1551,-1997
17:17:28.919,,-129,-1491,-1997
17:17:28.929,,-100,-1359,-1997
17:17:28.939,,-55,-1226,-1993
17:17:28.949,,16,-1130,-1728
17:17:28.959,,-49,-832,-1563
17:17:28.969,,-68,-706,-1421
17:17:28.979,,-83,-640,-1279
17:17:28.989,,-108,-611,-1154
17:17:28.999,,-141,-568,-1075
17:17:29.009,,-188,-557,-1023
17:17:29.019,,-219,-548,-945
17:17:29.029,,-223,-537,-889
17:17:29.039,,-218,-558,-825
17:17:29.049,,-188,-535,-808
17:17:29.059,,-154,-482,-772
17:17:29.069,,-136,-411,-735
17:17:29.079,,-115,-347,-690
17:17:29.089,,-129,-275,-616
17:17:29.099,,-111,-259,-575
17:17:29.109,,-82,-261,-501
17:17:29.119,,-73,-275,-426
17:17:29.129,,-59,-229,-369
17:17:29.139,,-67,-142,-309
17:17:29.254,,-388,205,359
17:17:29.256,,-388,248,301
17:17:29.257,,-374,248,301
17:17:29.258,,-374,248,301
17:17:29.260,,-374,248,301
17:17:29.261,,-374,248,301
17:17:29.263,,-374,248,301
17:17:29.264,,-374,248,301
17:17:29.265,,-377,268,266
17:17:29.267,,-377,268,266
17:17:29.268,,-377,268,266
17:17:29.269,,-377,268,266
17:17:29.271,,-377,268,266
17:17:29.279,,-407,293,315
17:17:29.289,,-477,333,394
17:17:29.299,,-541,361,541
17:17:29.309,,-564,356,687
17:17:29.319,,-564,335,791
17:17:29.329,,-574,316,793
17:17:29.339,,-601,328,645
17:17:29.349,,-620,337,568
17:17:29.359,,-626,331,548
17:17:29.369,,-693,336,692
17:17:29.379,,-769,335,878
17:17:29.389,,-785,362,1032
17:17:29.399,,-831,404,1194
17:17:29.409,,-886,446,1239
17:17:29.419,,-936,512,1286
17:17:29.429,,-1019,574,1287
17:17:29.439,,-1094,620,1289
17:17:29.449,,-1181,683,1378
17:17:29.459,,-1247,685,1568
17:17:29.469,,-1409,651,1998
17:17:29.479,,-1458,653,1998
17:17:29.489,,-1428,674,1998
17:17:29.499,,-1393,762,1951
17:17:29.509,,-1330,838,1793
17:17:29.519,,-1291,918,1642
17:17:29.529,,-1236,976,1550
17:17:29.539,,-1168,972,1533
17:17:29.549,,-1125,966,1509
17:17:29.559,,-1078,936,1464
17:17:29.569,,-1053,938,1383
17:17:29.579,,-1016,954,1298
17:17:29.589,,-957,934,1216
17:17:29.599,,-866,877,1092
17:17:29.609,,-840,839,1068
17:17:29.619,,-804,777,1028
17:17:29.629,,-739,694,989
17:17:29.639,,-688,637,917
17:17:29.649,,-664,613,856
17:17:29.659,,-634,579,823
17:17:29.669,,-605,539,791
17:17:29.679,,-584,501,739
17:17:29.689,,-569,461,658
17:17:29.699,,-542,409,608
17:17:29.709,,-502,346,561
17:17:29.719,,-481,314,437
17:17:29.729,,-401,263,373
17:17:29.739,,-365,259,344
17:17:29.749,,-353,251,297
17:17:29.759,,-337,278,260
17:17:29.769,,-340,360,239
17:17:29.779,,-350,395,226
17:17:29.789,,-338,362,229
17:17:29.799,,-330,317,202
17:17:29.809,,-288,215,185
17:17:29.819,,-307,127,133
17:17:29.829,,-286,23,125
17:17:29.839,,-289,-77,154
17:17:29.849,,-262,-220,146
17:17:29.859,,-246,-263,104
17:17:29.869,,-183,-262,30
17:17:29.879,,-186,-231,-97
17:17:29.889,,-188,-257,-208
17:17:29.899,,-163,-403,-298
17:17:29.909,,-174,-561,-393
17:17:29.919,,-160,-655,-484
17:17:29.929,,-179,-709,-590
17:17:29.939,,-158,-735,-675
17:17:29.949,,-150,-758,-769
17:17:29.959,,-192,-793,-845
17:17:29.969,,-208,-836,-878
17:17:29.979,,-224,-863,-1026
17:17:29.989,,-270,-959,-1092
17:17:29.999,,-282,-1067,-1143
17:17:30.009,,-278,-1127,-1198
17:17:30.019,,-333,-1177,-1223
17:17:30.029,,-382,-1238,-1222
17:17:30.039,,-391,-1306,-1206
17:17:30.049,,-427,-1347,-1176
17:17:30.059,,-488,-1343,-1232
17:17:30.069,,-515,-1327,-1345
17:17:30.079,,-488,-1310,-1291
17:17:30.089,,-433,-1334,-1302
17:17:30.099,,-357,-1408,-1350
17:17:30.109,,-249,-1273,-1418
17:17:30.119,,-283,-1086,-1412
17:17:30.129,,-281,-923,-1347
17:17:30.139,,-255,-801,-1326
17:17:30.149,,-259,-717,-1259
17:17:30.159,,-252,-642,-1163
17:17:30.169,,-238,-601,-1044
17:17:30.179,,-231,-539,-1024
17:17:30.189,,-213,-521,-977
17:17:30.199,,-195,-501,-948
17:17:30.209,,-194,-487,-971
17:17:30.219,,-220,-471,-971
17:17:30.229,,-201,-439,-965
17:17:30.239,,-129,-366,-913
17:17:30.249,,-116,-309,-818
17:17:30.259,,-124,-226,-679
17:17:30.269,,-127,-200,-567
17:17:30.279,,-144,-163,-523
17:17:30.289,,-148,-126,-476
17:17:30.299,,-197,-123,-484
17:17:30.309,,-217,-154,-420
17:17:30.319,,-254,-129,-345
17:17:30.329,,-276,-81,-270
17:17:30.339,,-259,-22,-165
17:17:30.349,,-255,28,-94
17:17:30.359,,-246,56,-72
17:17:30.369,,-287,108,-84
17:17:30.379,,-300,101,-75
17:17:30.389,,-355,101,-116
17:17:30.399,,-382,104,-44
17:17:30.409,,-436,101,95
17:17:30.419,,-478,55,208
17:17:30.429,,-460,63,313
17:17:30.439,,-436,65,371
17:17:30.449,,-417,93,392
17:17:30.459,,-427,139,365
17:17:30.469,,-422,185,348
17:17:30.479,,-456,218,319
17:17:30.489,,-468,209,397
17:17:30.499,,-475,198,466
17:17:30.509,,-498,225,555
17:17:30.519,,-511,263,694
17:17:30.529,,-521,262,814
17:17:30.539,,-546,243,943
17:17:30.549,,-587,269,1027
17:17:30.559,,-623,302,1081
17:17:30.569,,-640,326,1049
17:17:30.579,,-614,353,939
17:17:30.589,,-591,324,897
17:17:30.708,,-1280,1064,1739
17:17:30.710,,-1280,1064,1739
17:17:30.711,,-1280,1064,1739
17:17:30.712,,-1309,1088,1844
17:17:30.714,,-1309,1088,1844
17:17:30.715,,-1309,1088,1844
17:17:30.716,,-1309,1088,1844
17:17:30.718,,-1309,1088,1844
17:17:30.719,,-1309,1088,1844
17:17:30.720,,-1309,1088,1844
17:17:30.722,,-1328,1132,1942
17:17:30.723,,-1328,1132,1942
17:17:30.725,,-1328,1132,1942
17:17:30.729,,-1328,1132,1942
17:17:30.739,,-1330,1188,1963
17:17:30.749,,-1290,1282,1814
17:17:30.759,,-1246,1328,1690
17:17:30.769,,-1207,1346,1600
17:17:30.779,,-1149,1339,1529
17:17:30.789,,-1081,1314,1468
17:17:30.799,,-1004,1289,1382
17:17:30.809,,-921,1261,1291
17:17:30.819,,-849,1247,1212
17:17:30.829,,-786,1212,1169
17:17:30.839,,-759,1181,1135
17:17:30.849,,-716,1152,1115
17:17:30.859,,-669,1108,1108
17:17:30.869,,-614,1059,1088
17:17:30.879,,-479,1015,1011
17:17:30.889,,-418,988,977
17:17:30.899,,-377,917,965
17:17:30.909,,-349,843,970
17:17:30.919,,-290,764,1007
17:17:30.929,,-206,672,1041
17:17:30.939,,-160,598,972
17:17:30.949,,-100,536,944
17:17:30.959,,-69,482,885
17:17:30.969,,15,405,797
17:17:30.979,,73,305,651
17:17:30.989,,85,252,483
17:17:30.999,,143,188,101
17:17:31.009,,260,58,-58
17:17:31.019,,318,13,-226
17:17:31.029,,307,-36,-330
17:17:31.039,,289,-40,-507
17:17:31.049,,345,-39,-555
17:17:31.059,,372,-86,-714
17:17:31.069,,359,-164,-801
17:17:31.079,,300,-264,-943
17:17:31.089,,278,-340,-1023
17:17:31.099,,218,-396,-1099
17:17:31.109,,172,-495,-1098
17:17:31.119,,121,-608,-1102
17:17:31.129,,84,-680,-1070
17:17:31.139,,7,-754,-1048
17:17:31.149,,-28,-819,-1020
17:17:31.159,,-66,-817,-1036
17:17:31.169,,-158,-877,-1085
17:17:31.179,,-220,-971,-1079
17:17:31.189,,-243,-1016,-1098
17:17:31.199,,-246,-1026,-1170
17:17:31.209,,-224,-988,-1212
17:17:31.219,,-241,-925,-1238
17:17:31.229,,-274,-884,-1267
17:17:31.239,,-256,-917,-1234
17:17:31.249,,-242,-966,-1217
17:17:31.259,,-279,-1035,-1402
17:17:31.269,,-224,-1084,-1552
17:17:31.279,,-175,-1117,-1578
17:17:31.289,,-104,-1164,-1703
17:17:31.299,,-66,-1216,-1719
17:17:31.309,,-25,-1169,-1812
17:17:31.319,,33,-1068,-1800
17:17:31.329,,82,-947,-1756
17:17:31.339,,126,-856,-1741
17:17:31.349,,171,-765,-1696
17:17:31.359,,198,-741,-1637
17:17:31.369,,190,-717,-1589
17:17:31.379,,186,-698,-1537
17:17:31.389,,157,-705,-1283
17:17:31.399,,160,-658,-1110
17:17:31.409,,180,-565,-949
17:17:31.419,,187,-403,-797
17:17:31.429,,166,-291,-627
17:17:31.439,,151,-224,-488
17:17:31.449,,99,-149,-408
17:17:31.459,,75,-121,-364
17:17:31.469,,56,-148,-338
17:17:31.479,,42,-173,-293
17:17:31.489,,36,-233,-188
17:17:31.499,,30,-282,-104
17:17:31.509,,55,-276,27
17:17:31.519,,137,-70,203
17:17:31.529,,100,126,267
17:17:31.539,,132,241,261
17:17:31.549,,147,216,213
17:17:31.559,,122,130,248
17:17:31.569,,124,66,335
17:17:31.579,,113,14,535
17:17:31.589,,67,0,732
17:17:31.599,,8,123,904
17:17:31.609,,-1,303,1035
17:17:31.619,,-17,457,1090
17:17:31.629,,-83,656,1151
17:17:31.639,,-155,700,1273
17:17:31.649,,-266,498,1453
17:17:31.659,,-389,442,1656
17:17:31.669,,-523,485,1880
17:17:31.679,,-705,550,1997
17:17:31.689,,-832,666,1998
17:17:31.699,,-974,739,1998
17:17:31.709,,-1073,770,1998
17:17:31.719,,-1049,788,1998
17:17:31.729,,-1033,824,1998
17:17:31.739,,-1088,859,1998
17:17:31.749,,-1099,854,1998
17:17:31.759,,-1089,828,1998
17:17:31.769,,-1083,834,1992
17:17:31.779,,-1091,921,1932
17:17:31.789,,-1047,964,1933
17:17:31.799,,-988,1012,1805
17:17:31.809,,-1027,1076,1803
17:17:31.819,,-1014,1082,1827
17:17:31.829,,-947,1056,1758
17:17:31.839,,-882,1020,1678
17:17:31.849,,-835,1000,1591
17:17:31.859,,-775,978,1485
17:17:31.869,,-703,938,1350
17:17:31.879,,-628,898,1238
17:17:31.889,,-589,870,1177
17:17:31.899,,-552,765,1109
17:17:31.909,,-523,748,1072
17:17:31.919,,-502,715,1061
17:17:31.929,,-446,657,1040
17:17:31.939,,-384,602,969
17:17:31.949,,-339,579,841
17:17:31.959,,-295,543,662
17:17:31.969,,-258,473,465
17:17:31.979,,-235,378,294
17:17:31.989,,-219,278,178
17:17:31.999,,-231,210,170
17:17:32.009,,-244,160,246
17:17:32.019,,-263,103,278
17:17:32.029,,-243,45,286
17:17:32.039,,-176,10,289
17:17:32.153,,143,-40,-744
17:17:32.155,,143,-40,-744
17:17:32.156,,143,-40,-744
17:17:32.157,,143,-40,-744
17:17:32.159,,143,-40,-854
17:17:32.160,,180,-76,-854
17:17:32.161,,180,-76,-854
17:17:32.163,,180,-76,-854
17:17:32.164,,180,-76,-854
17:17:32.165,,180,-76,-854
17:17:32.167,,180,-76,-854
17:17:32.168,,167,-80,-935
17:17:32.170,,167,-80,-935
17:17:32.179,,165,-110,-965
17:17:32.189,,148,-154,-962
17:17:32.199,,114,-207,-939
17:17:32.209,,58,-228,-921
17:17:32.219,,38,-279,-921
17:17:32.229,,-8,-364,-938
17:17:32.239,,-72,-469,-955
17:17:32.249,,-81,-591,-948
17:17:32.259,,-100,-702,-968
17:17:32.269,,-111,-826,-991
17:17:32.279,,-86,-963,-1065
17:17:32.289,,11,-1180,-1286
17:17:32.299,,-10,-1238,-1443
17:17:32.309,,-41,-1286,-1584
17:17:32.319,,-8,-1361,-1680
17:17:32.329,,46,-1411,-1794
17:17:32.339,,113,-1370,-1711
17:17:32.349,,73,-1371,-1983
17:17:32.359,,114,-1338,-1984
17:17:32.369,,96,-1249,-1968
17:17:32.379,,68,-1136,-1881
17:17:32.389,,54,-1032,-1739
17:17:32.399,,7,-915,-1584
17:17:32.409,,-29,-825,-1402
17:17:32.419,,-77,-733,-1377
17:17:32.429,,-92,-661,-1345
17:17:32.439,,-111,-585,-1282
17:17:32.449,,-131,-510,-1237
17:17:32.459,,-184,-445,-1165
17:17:32.469,,-157,-423,-1081
17:17:32.479,,-126,-392,-1027
17:17:32.489,,-122,-316,-986
17:17:32.499,,-39,-317,-894
17:17:32.509,,-15,-302,-905
17:17:32.519,,19,-253,-912
17:17:32.529,,52,-205,-993
17:17:32.539,,35,-194,-1016
17:17:32.549,,51,-184,-896
17:17:32.559,,18,-190,-673
17:17:32.569,,-20,-172,-407
17:17:32.579,,-26,-144,-206
17:17:32.589,,-34,-117,-102
17:17:32.599,,-29,-122,-104
17:17:32.609,,-17,-119,-218
17:17:32.619,,-16,-41,-364
17:17:32.629,,-35,-51,-405
17:17:32.639,,-52,-59,-345
17:17:32.649,,-56,-60,-235
17:17:32.659,,-36,-3,-32
17:17:32.669,,-105,82,414
17:17:32.679,,-178,97,460
17:17:32.689,,-204,124,360
17:17:32.699,,-206,129,175
17:17:32.709,,-242,83,102
17:17:32.719,,-332,87,107
17:17:32.729,,-391,82,193
17:17:32.739,,-371,120,346
17:17:32.749,,-343,194,484
17:17:32.759,,-333,235,561
17:17:32.769,,-314,260,626
17:17:32.779,,-343,292,630
17:17:32.789,,-321,264,601
17:17:32.799,,-363,223,616
17:17:32.809,,-381,256,710
17:17:32.819,,-433,293,897
17:17:32.829,,-502,266,1147
17:17:32.839,,-580,297,1465
17:17:32.849,,-706,340,1802
17:17:32.859,,-811,347,1972
17:17:32.869,,-890,390,1998
17:17:32.879,,-998,477,1998
17:17:32.889,,-1055,563,1997
17:17:32.899,,-1167,573,1998
17:17:32.909,,-1244,558,1998
17:17:32.919,,-1286,467,1998
17:17:32.929,,-1341,215,1998
17:17:32.939,,-1322,157,1998
17:17:32.949,,-1336,174,1998
17:17:32.959,,-1337,241,1982
17:17:32.969,,-1276,285,1904
17:17:32.979,,-1254,293,1745
17:17:32.989,,-1170,305,1595
17:17:32.999,,-1122,340,1504
17:17:33.009,,-1079,372,1470
17:17:33.019,,-1038,421,1432
17:17:33.029,,-1028,495,1386
17:17:33.039,,-1001,542,1360
17:17:33.049,,-958,549,1255
17:17:33.059,,-922,591,1209
17:17:33.069,,-897,616,1162
17:17:33.079,,-846,627,1101
17:17:33.089,,-791,610,1025
17:17:33.099,,-742,616,946
17:17:33.109,,-714,629,914
17:17:33.119,,-668,625,881
17:17:33.129,,-627,595,841
17:17:33.139,,-594,562,793
17:17:33.149,,-578,521,710
17:17:33.159,,-559,469,624
17:17:33.169,,-548,423,538
17:17:33.179,,-541,377,450
17:17:33.189,,-489,327,465
17:17:33.199,,-479,307,469
17:17:33.209,,-470,291,442
17:17:33.219,,-442,262,442
17:17:33.229,,-417,251,411
17:17:33.239,,-385,211,316
17:17:33.249,,-379,154,277
17:17:33.259,,-342,95,169
17:17:33.269,,-274,22,130
17:17:33.279,,-210,-57,55
17:17:33.289,,-149,-101,21
17:17:33.299,,-115,-72,-34
17:17:33.309,,-16,-18,-129
17:17:33.319,,0,-39,-228
17:17:33.329,,13,-86,-332
17:17:33.339,,17,-138,-408
17:17:33.349,,45,-188,-500
17:17:33.359,,101,-207,-574
17:17:33.369,,149,-203,-631
17:17:33.379,,185,-199,-647
17:17:33.389,,182,-160,-666
17:17:33.399,,185,-114,-683
17:17:33.409,,181,-124,-710
17:17:33.419,,187,-174,-755
17:17:33.429,,199,-238,-826
17:17:33.439,,171,-472,-1014
17:17:33.449,,166,-554,-1105
17:17:33.459,,153,-636,-1148
17:17:33.469,,78,-719,-1124
17:17:33.479,,-9,-831,-1059
17:17:33.489,,-27,-968,-1051
17:17:33.499,,-30,-1045,-1121
17:17:33.509,,-69,-1102,-1213
17:17:33.519,,-58,-1221,-1237
17:17:33.637,,226,-644,-1476
17:17:33.639,,226,-644,-1476
17:17:33.640,,226,-644,-1476
17:17:33.641,,226,-644,-1476
17:17:33.643,,226,-644,-1313
17:17:33.644,,189,-597,-1313
17:17:33.645,,189,-597,-1313
17:17:33.647,,189,-597,-1313
17:17:33.648,,189,-597,-1313
17:17:33.649,,189,-597,-1313
17:17:33.651,,189,-597,-1313
17:17:33.652,,189,-568,-1207
17:17:33.654,,138,-568,-1207
17:17:33.659,,138,-568,-1207
17:17:33.669,,110,-546,-1133
17:17:33.679,,70,-514,-1096
17:17:33.689,,48,-494,-1073
17:17:33.699,,120,-480,-1049
17:17:33.709,,145,-417,-1008
17:17:33.719,,173,-350,-937
17:17:33.729,,182,-311,-791
17:17:33.739,,179,-223,-647
17:17:33.749,,160,-184,-472
17:17:33.759,,108,-178,-343
17:17:33.769,,22,-144,-258
17:17:33.779,,-5,-94,-193
17:17:33.789,,-20,-85,-177
17:17:33.799,,-64,-78,-152
17:17:33.809,,-97,-66,-132
17:17:33.819,,-99,-82,-26
17:17:33.829,,-170,-54,32
17:17:33.839,,-249,-9,113
17:17:33.849,,-287,34,189
17:17:33.859,,-308,40,257
17:17:33.869,,-355,30,265
17:17:33.879,,-391,38,235
17:17:33.889,,-420,68,159
17:17:33.899,,-411,67,85
17:17:33.909,,-402,96,74
17:17:33.919,,-429,106,47
17:17:33.929,,-418,148,106
17:17:33.939,,-438,200,250
17:17:33.949,,-517,63,551
17:17:33.959,,-555,-12,638
17:17:33.969,,-567,6,572
17:17:33.979,,-607,74,557
17:17:33.989,,-594,155,561
17:17:33.999,,-520,235,623
17:17:34.009,,-524,368,752
17:17:34.019,,-620,530,993
17:17:34.029,,-694,553,1257
17:17:34.039,,-755,409,1451
17:17:34.049,,-847,339,1581
17:17:34.059,,-921,379,1606
17:17:34.069,,-999,438,1581
17:17:34.079,,-1091,572,1475
17:17:34.089,,-1121,640,1484
17:17:34.099,,-1155,682,1501
17:17:34.109,,-1186,700,1549
17:17:34.119,,-1207,711,1635
17:17:34.129,,-1245,722,1734
17:17:34.139,,-1288,729,1831
17:17:34.149,,-1307,755,1850
17:17:34.159,,-1347,779,1853
17:17:34.169,,-1315,807,1746
17:17:34.179,,-1277,832,1631
17:17:34.189,,-1249,857,1524
17:17:34.199,,-1234,892,1467
17:17:34.209,,-1161,902,1393
17:17:34.219,,-1122,862,1358
17:17:34.229,,-1080,815,1308
17:17:34.239,,-1041,781,1259
17:17:34.249,,-1015,749,1180
17:17:34.259,,-968,732,1124
17:17:34.269,,-927,724,1054
17:17:34.279,,-877,713,954
17:17:34.289,,-825,705,859
17:17:34.299,,-789,664,776
17:17:34.309,,-759,583,682
17:17:34.319,,-748,478,628
17:17:34.329,,-694,421,560
17:17:34.339,,-669,367,555
17:17:34.349,,-648,358,557
17:17:34.359,,-612,328,508
17:17:34.369,,-558,277,446
17:17:34.379,,-536,278,357
17:17:34.389,,-504,217,284
17:17:34.399,,-482,130,202
17:17:34.409,,-449,49,163
17:17:34.419,,-415,-35,108
17:17:34.429,,-397,-79,60
17:17:34.439,,-374,-87,50
17:17:34.449,,-341,-87,51
17:17:34.459,,-320,-96,11
17:17:34.469,,-285,-48,-39
17:17:34.479,,-245,-75,-70
17:17:34.489,,-268,-98,-184
17:17:34.499,,-210,-170,-172
17:17:34.509,,-233,-253,-277
17:17:34.519,,-186,-301,-296
17:17:34.529,,-146,-308,-364
17:17:34.539,,-122,-304,-411
17:17:34.549,,-101,-270,-422
17:17:34.559,,-67,-225,-418
17:17:34.569,,-60,-139,-480
17:17:34.579,,-46,-126,-541
17:17:34.589,,-31,-235,-636
17:17:34.599,,-19,-265,-710
17:17:34.609,,-7,-290,-745
17:17:34.619,,-2,-316,-761
17:17:34.629,,-14,-350,-765
17:17:34.639,,-17,-370,-777
17:17:34.649,,-14,-384,-785
17:17:34.659,,-48,-415,-802
17:17:34.669,,-129,-410,-821
17:17:34.679,,-188,-435,-847
17:17:34.689,,-306,-499,-873
17:17:34.699,,-405,-670,-896
17:17:34.709,,-462,-942,-859
17:17:34.719,,-526,-1333,-770
17:17:34.729,,-556,-1395,-851
17:17:34.739,,-579,-1467,-1057
17:17:34.749,,-556,-1516,-1145
17:17:34.759,,-472,-1585,-1419
17:17:34.769,,-426,-1607,-1655
17:17:34.779,,-358,-1534,-1836
17:17:34.789,,-296,-1492,-1979
17:17:34.799,,-250,-1498,-1997
17:17:34.809,,-187,-1450,-1997
17:17:34.819,,-162,-1326,-1997
17:17:34.829,,-168,-1175,-1921
17:17:34.839,,-223,-1020,-1763
17:17:34.849,,-283,-805,-1339
17:17:34.859,,-316,-753,-1195
17:17:34.869,,-337,-681,-1089
17:17:34.879,,-348,-636,-977
17:17:34.889,,-363,-615,-911
17:17:34.899,,-350,-576,-935
17:17:34.909,,-303,-535,-911
17:17:34.919,,-254,-508,-913
17:17:34.929,,-203,-497,-899
17:17:34.939,,-156,-456,-870
17:17:34.949,,-76,-378,-832
17:17:34.959,,-17,-293,-751
17:17:34.969,,18,-233,-671
17:17:35.087,,17,170,-162
17:17:35.088,,17,170,-162
17:17:35.090,,-15,186,-190
17:17:35.091,,-15,186,-190
17:17:35.093,,-15,186,-190
17:17:35.094,,-15,186,-190
17:17:35.095,,-15,186,-190
17:17:35.097,,-15,186,-190
17:17:35.098,,-15,186,-190
17:17:35.099,,-56,162,-87
17:17:35.101,,-56,162,-87
17:17:35.102,,-56,162,-87
17:17:35.103,,-56,162,-87
17:17:35.109,,-140,142,88
17:17:35.119,,-228,93,259
17:17:35.129,,-256,102,452
17:17:35.139,,-292,110,577
17:17:35.149,,-328,118,605
17:17:35.159,,-311,128,512
17:17:35.169,,-297,159,394
17:17:35.179,,-368,185,300
17:17:35.189,,-390,214,312
17:17:35.199,,-389,259,381
17:17:35.209,,-385,258,501
17:17:35.219,,-415,251,702
17:17:35.229,,-432,236,961
17:17:35.239,,-584,224,1094
17:17:35.249,,-652,272,1180
17:17:35.259,,-715,252,1249
17:17:35.269,,-765,227,1369
17:17:35.279,,-820,233,1418
17:17:35.289,,-823,297,1448
17:17:35.299,,-857,286,1573
17:17:35.309,,-919,225,1782
17:17:35.319,,-989,257,1971
17:17:35.329,,-1097,331,1998
17:17:35.339,,-1200,334,1998
17:17:35.349,,-1255,340,1998
17:17:35.359,,-1314,341,1998
17:17:35.369,,-1331,427,1998
17:17:35.379,,-1293,484,1998
17:17:35.389,,-1251,546,1998
17:17:35.399,,-1166,610,1998
17:17:35.409,,-1147,688,1998
17:17:35.419,,-1111,743,1975
17:17:35.429,,-1057,773,1936
17:17:35.439,,-1010,795,1922
17:17:35.449,,-972,790,1901
17:17:35.459,,-920,763,1864
17:17:35.469,,-843,734,1732
17:17:35.479,,-775,715,1603
17:17:35.489,,-656,667,1385
17:17:35.499,,-608,646,1288
17:17:35.509,,-559,624,1202
17:17:35.519,,-515,612,1142
17:17:35.529,,-477,569,1098
17:17:35.539,,-447,515,1036
17:17:35.549,,-392,459,945
17:17:35.559,,-344,413,827
17:17:35.569,,-307,369,734
17:17:35.579,,-274,339,646
17:17:35.589,,-250,315,562
17:17:35.599,,-219,256,500
17:17:35.609,,-205,193,466
17:17:35.619,,-210,123,417
17:17:35.629,,-194,85,374
17:17:35.639,,-163,5,286
17:17:35.649,,-128,-43,178
17:17:35.659,,-100,-96,77
17:17:35.669,,-95,-125,-15
17:17:35.679,,-84,-164,-92
17:17:35.689,,-82,-190,-142
17:17:35.699,,-93,-195,-189
17:17:35.709,,-93,-180,-260
17:17:35.719,,-128,-151,-284
17:17:35.729,,-145,-142,-340
17:17:35.739,,-168,-111,-419
17:17:35.749,,-87,-180,-504
17:17:35.759,,-91,-139,-551
17:17:35.769,,-89,-82,-619
17:17:35.779,,-118,-46,-703
17:17:35.789,,-154,-5,-761
17:17:35.799,,-166,21,-801
17:17:35.809,,-158,19,-797
17:17:35.819,,-197,-24,-757
17:17:35.829,,-221,-76,-713
17:17:35.839,,-188,-89,-697
17:17:35.849,,-156,-98,-691
17:17:35.859,,-175,-112,-704
17:17:35.869,,-191,-104,-785
17:17:35.879,,-219,-154,-789
17:17:35.889,,-297,-277,-791
17:17:35.899,,-312,-458,-806
17:17:35.909,,-303,-680,-828
17:17:35.919,,-268,-913,-910
17:17:35.929,,-187,-1063,-934
17:17:35.939,,-185,-1071,-1307
17:17:35.949,,-159,-1102,-1247
17:17:35.959,,-131,-1180,-1347
17:17:35.969,,-132,-1267,-1451
17:17:35.979,,-123,-1264,-1594
17:17:35.989,,-66,-1258,-1805
17:17:35.999,,-4,-1443,-1996
17:17:36.009,,140,-1447,-1997
17:17:36.019,,169,-1441,-1997
17:17:36.029,,198,-1354,-1997
17:17:36.039,,251,-1178,-1997
17:17:36.049,,246,-973,-1997
17:17:36.059,,220,-839,-1887
17:17:36.069,,217,-735,-1695
17:17:36.079,,187,-633,-1533
17:17:36.089,,160,-578,-1439
17:17:36.099,,143,-545,-1344
17:17:36.109,,133,-496,-1307
17:17:36.119,,131,-415,-1248
17:17:36.129,,175,-285,-1095
17:17:36.139,,209,-226,-1050
17:17:36.149,,223,-166,-1022
17:17:36.159,,215,-167,-961
17:17:36.169,,167,-202,-868
17:17:36.179,,134,-199,-779
17:17:36.189,,115,-207,-652
17:17:36.199,,81,-222,-523
17:17:36.209,,69,-228,-462
17:17:36.219,,76,-196,-424
17:17:36.229,,107,-159,-390
17:17:36.239,,132,-147,-359
17:17:36.249,,153,-98,-350
17:17:36.259,,127,25,-246
17:17:36.269,,74,37,-74
17:17:36.279,,69,71,90
17:17:36.289,,35,149,280
17:17:36.299,,-9,190,449
17:17:36.309,,-42,145,537
17:17:36.319,,-93,126,537
17:17:36.329,,-123,165,528
17:17:36.339,,-153,223,470
17:17:36.349,,-180,256,416
17:17:36.359,,-170,213,403
17:17:36.369,,-104,165,441
17:17:36.379,,-100,218,597
17:17:36.389,,-202,351,977
17:17:36.399,,-237,406,1017
17:17:36.409,,-293,435,977
17:17:36.419,,-246,369,897
17:17:36.429,,-171,354,796
17:17:36.439,,-207,356,768
17:17:36.556,,-971,553,1998
17:17:36.557,,-971,553,1998
17:17:36.558,,-971,553,1998
17:17:36.560,,-971,553,1998
17:17:36.561,,-971,553,1998
17:17:36.563,,-971,553,1998
17:17:36.564,,-971,553,1998
17:17:36.565,,-1043,694,1998
17:17:36.567,,-1043,694,1998
17:17:36.568,,-1043,694,1998
17:17:36.569,,-1043,694,1998
17:17:36.571,,-1043,694,1998
17:17:36.572,,-1043,694,1998
17:17:36.579,,-1151,853,1998
17:17:36.589,,-1034,925,1998
17:17:36.599,,-955,963,1998
17:17:36.609,,-919,1009,1998
17:17:36.619,,-894,1086,1987
17:17:36.629,,-839,1122,1860
17:17:36.639,,-777,1143,1536
17:17:36.649,,-642,1085,1365
17:17:36.659,,-601,974,1210
17:17:36.669,,-561,914,1146
17:17:36.679,,-565,867,1094
17:17:36.689,,-564,802,1074
17:17:36.699,,-546,701,1091
17:17:36.709,,-545,648,1095
17:17:36.719,,-551,659,1116
17:17:36.729,,-550,686,1114
17:17:36.739,,-505,694,1040
17:17:36.749,,-434,645,912
17:17:36.759,,-395,559,783
17:17:36.769,,-368,475,651
17:17:36.779,,-350,439,611
17:17:36.789,,-356,377,565
17:17:36.799,,-377,312,528
17:17:36.809,,-358,288,509
17:17:36.819,,-342,283,516
17:17:36.829,,-326,269,509
17:17:36.839,,-308,251,438
17:17:36.849,,-306,225,363
17:17:36.859,,-319,181,294
17:17:36.869,,-298,88,243
17:17:36.879,,-265,39,199
17:17:36.889,,-263,62,139
17:17:36.899,,-196,14,115
17:17:36.909,,-214,-65,101
17:17:36.919,,-246,-185,51
17:17:36.929,,-208,-238,-42
17:17:36.939,,-152,-235,-150
17:17:36.949,,-89,-246,-236
17:17:36.959,,-42,-223,-297
17:17:36.969,,-8,-189,-319
17:17:36.979,,42,-120,-404
17:17:36.989,,35,-34,-442
17:17:36.999,,19,-24,-507
17:17:37.009,,-9,-78,-537
17:17:37.019,,-5,-201,-531
17:17:37.029,,-15,-537,-439
17:17:37.039,,-115,-450,-480
17:17:37.049,,-223,-250,-694
17:17:37.059,,-233,-93,-1013
17:17:37.069,,-125,-136,-1316
17:17:37.079,,-62,-457,-1641
17:17:37.089,,-46,-737,-1810
17:17:37.099,,-72,-897,-1903
17:17:37.109,,-123,-955,-1989
17:17:37.119,,-112,-936,-1995
17:17:37.129,,-130,-917,-1921
17:17:37.139,,-134,-877,-1937
17:17:37.149,,-172,-895,-1777
17:17:37.159,,-131,-968,-1857
17:17:37.169,,-199,-789,-1819
17:17:37.179,,-198,-711,-1785
17:17:37.189,,-188,-676,-1667
17:17:37.199,,-165,-667,-1541
17:17:37.209,,-162,-686,-1437
17:17:37.219,,-181,-631,-1390
17:17:37.229,,-190,-569,-1366
17:17:37.239,,-161,-560,-1326
17:17:37.249,,-169,-498,-1277
17:17:37.259,,-177,-435,-1206
17:17:37.269,,-159,-444,-1145
17:17:37.279,,-115,-482,-1051
17:17:37.289,,-76,-442,-1033
17:17:37.299,,-69,-400,-960
17:17:37.309,,-58,-334,-865
17:17:37.319,,-65,-291,-831
17:17:37.329,,-37,-224,-814
17:17:37.339,,5,-158,-766
17:17:37.349,,63,-199,-728
17:17:37.359,,47,-240,-644
17:17:37.369,,8,-187,-564
17:17:37.379,,-23,-159,-480
17:17:37.389,,-35,-109,-393
17:17:37.399,,24,-70,-330
17:17:37.409,,45,96,-284
17:17:37.419,,102,152,-247
17:17:37.429,,131,153,-166
17:17:37.439,,104,179,-49
17:17:37.449,,64,233,69
17:17:37.459,,13,257,205
17:17:37.469,,-19,244,369
17:17:37.479,,-93,289,525
17:17:37.489,,-156,340,687
17:17:37.499,,-172,304,780
17:17:37.509,,-208,234,819
17:17:37.519,,-227,228,811
17:17:37.529,,-234,288,782
17:17:37.539,,-241,372,672
17:17:37.549,,-225,336,778
17:17:37.559,,-270,311,883
17:17:37.569,,-327,309,1038
17:17:37.579,,-355,301,1166
17:17:37.589,,-385,284,1214
17:17:37.599,,-376,288,1163
17:17:37.609,,-330,355,1140
17:17:37.619,,-334,427,1140
17:17:37.629,,-356,481,1261
17:17:37.639,,-432,483,1397
17:17:37.649,,-449,494,1631
17:17:37.659,,-581,477,1861
17:17:37.669,,-731,551,1998
17:17:37.679,,-739,601,1998
17:17:37.689,,-758,645,1998
17:17:37.699,,-810,725,1998
17:17:37.709,,-829,715,1998
17:17:37.719,,-827,712,1998
17:17:37.729,,-922,710,1998
17:17:37.739,,-875,761,1997
17:17:37.749,,-784,787,1998
17:17:37.759,,-812,810,1998
17:17:37.769,,-828,911,1998
17:17:37.779,,-815,965,1998
17:17:37.789,,-800,923,1998
17:17:37.799,,-737,903,1998
17:17:37.809,,-687,876,1991
17:17:37.819,,-634,866,1840
17:17:37.829,,-550,865,1694
17:17:37.839,,-496,863,1566
17:17:37.849,,-465,848,1452
17:17:37.859,,-416,831,1371
17:17:37.869,,-391,811,1268
17:17:37.879,,-393,793,1220
17:17:37.889,,-394,737,1218
17:17:37.899,,-379,674,1181
17:17:37.909,,-355,648,1101
17:17:38.027,,-220,178,252
17:17:38.028,,-220,178,252
17:17:38.029,,-220,178,252
17:17:38.031,,-226,106,190
17:17:38.032,,-226,106,190
17:17:38.033,,-226,106,190
17:17:38.035,,-226,106,190
17:17:38.036,,-226,106,190
17:17:38.037,,-226,106,190
17:17:38.039,,-226,106,190
17:17:38.040,,-259,-4,141
17:17:38.042,,-259,-4,141
17:17:38.043,,-259,-4,141
17:17:38.048,,-259,-107,126
17:17:38.058,,-246,-146,124
17:17:38.068,,-220,-134,129
17:17:38.078,,-197,-117,138
17:17:38.088,,-178,-70,132
17:17:38.098,,-123,-18,93
17:17:38.108,,-66,25,81
17:17:38.118,,-56,58,-174
17:17:38.128,,64,-45,-150
17:17:38.138,,116,-156,-416
17:17:38.148,,192,-248,-457
17:17:38.158,,230,-357,-549
17:17:38.168,,122,-200,-639
17:17:38.178,,15,323,-848
17:17:38.188,,40,311,-912
17:17:38.198,,69,271,-908
17:17:38.208,,125,207,-942
17:17:38.218,,132,206,-1017
17:17:38.228,,77,190,-1118
17:17:38.238,,75,112,-1193
17:17:38.248,,63,-18,-1268
17:17:38.258,,-10,-171,-1359
17:17:38.268,,-86,-353,-1419
17:17:38.278,,-154,-595,-1510
17:17:38.288,,-246,-798,-1518
17:17:38.298,,-299,-1001,-1528
17:17:38.308,,-378,-1277,-1572
17:17:38.318,,-431,-1266,-1657
17:17:38.328,,-454,-1408,-1903
17:17:38.338,,-452,-1463,-1949
17:17:38.348,,-447,-1417,-1996
17:17:38.358,,-459,-1390,-1971
17:17:38.368,,-436,-1347,-1922
17:17:38.378,,-385,-1258,-1885
17:17:38.388,,-359,-1060,-1818
17:17:38.398,,-344,-833,-1675
17:17:38.408,,-334,-673,-1530
17:17:38.418,,-350,-571,-1381
17:17:38.428,,-336,-472,-1294
17:17:38.438,,-316,-382,-1143
17:17:38.448,,-295,-352,-1100
17:17:38.458,,-324,-301,-1039
17:17:38.468,,-282,-243,-1034
17:17:38.478,,-253,-221,-973
17:17:38.488,,-215,-193,-934
17:17:38.498,,-150,-141,-851
17:17:38.508,,-136,-101,-726
17:17:38.518,,-94,-46,-606
17:17:38.528,,-57,16,-510
17:17:38.538,,-50,58,-400
17:17:38.548,,-36,31,-342
17:17:38.558,,-46,50,-230
17:17:38.568,,-101,68,-153
17:17:38.578,,-61,59,-50
17:17:38.588,,-70,33,44
17:17:38.598,,-103,0,144
17:17:38.608,,-132,25,220
17:17:38.618,,-168,92,263
17:17:38.628,,-222,99,279
17:17:38.638,,-240,77,293
17:17:38.648,,-251,125,272
17:17:38.658,,-281,95,255
17:17:38.668,,-249,17,304
17:17:38.678,,-277,-54,431
17:17:38.688,,-323,-11,700
17:17:38.698,,-391,89,829
17:17:38.708,,-399,155,904
17:17:38.718,,-481,206,891
17:17:38.728,,-517,247,824
17:17:38.738,,-472,249,764
17:17:38.748,,-465,223,729
17:17:38.758,,-520,179,744
17:17:38.768,,-519,124,806
17:17:38.778,,-502,100,870
17:17:38.788,,-510,100,937
17:17:38.798,,-536,146,991
17:17:38.808,,-546,207,1047
17:17:38.818,,-527,287,1051
17:17:38.828,,-539,287,1036
17:17:38.838,,-585,226,1115
17:17:38.848,,-618,131,1201
17:17:38.858,,-681,40,1434
17:17:38.868,,-829,27,1669
17:17:38.878,,-910,91,1858
17:17:38.888,,-1008,146,1990
17:17:38.898,,-1108,172,1998
17:17:38.908,,-1161,210,1998
17:17:38.918,,-1255,119,1998
17:17:38.928,,-1192,-41,1998
17:17:38.938,,-1256,-112,1998
17:17:38.948,,-1294,-55,1998
17:17:38.958,,-1251,28,1998
17:17:38.968,,-1189,132,1998
17:17:38.978,,-1120,212,1998
17:17:38.988,,-1045,284,1984
17:17:38.998,,-985,339,1881
17:17:39.008,,-931,352,1790
17:17:39.018,,-900,387,1748
17:17:39.028,,-866,416,1724
17:17:39.038,,-828,418,1684
17:17:39.048,,-806,462,1623
17:17:39.058,,-741,429,1578
17:17:39.068,,-669,398,1501
17:17:39.078,,-603,402,1408
17:17:39.088,,-574,397,1378
17:17:39.098,,-536,362,1336
17:17:39.108,,-478,320,1281
17:17:39.118,,-433,324,1196
17:17:39.128,,-387,340,1081
17:17:39.138,,-338,331,983
17:17:39.148,,-270,272,897
17:17:39.158,,-214,214,806
17:17:39.168,,-182,154,734
17:17:39.178,,-150,114,676
17:17:39.188,,-132,80,596
17:17:39.198,,-126,24,432
17:17:39.208,,-115,-104,332
17:17:39.218,,-89,-170,247
17:17:39.228,,-62,-239,192
17:17:39.238,,-47,-248,141
17:17:39.248,,-18,-203,94
17:17:39.258,,2,-183,32
17:17:39.268,,-1,-162,-47
17:17:39.278,,-11,-149,-141
17:17:39.288,,20,-161,-242
17:17:39.298,,47,-157,-321
17:17:39.308,,49,-171,-408
17:17:39.318,,72,-154,-466
17:17:39.328,,111,-89,-490
17:17:39.338,,73,22,-770
17:17:39.348,,94,41,-701
17:17:39.358,,54,35,-776
17:17:39.368,,36,40,-826
17:17:39.378,,17,29,-834
17:17:39.388,,-31,18,-851
17:17:39.503,,-344,-1161,-1262
17:17:39.505,,-357,-1300,-1329
17:17:39.506,,-357,-1300,-1329
17:17:39.508,,-357,-1300,-1329
17:17:39.509,,-357,-1300,-1329
17:17:39.510,,-357,-1300,-1329
17:17:39.512,,-357,-1300,-1329
17:17:39.513,,-357,-1300,-1329
17:17:39.514,,-382,-1393,-1553
17:17:39.516,,-382,-1393,-1553
17:17:39.517,,-382,-1393,-1553
17:17:39.518,,-382,-1393,-1553
17:17:39.520,,-382,-1393,-1553
17:17:39.528,,-413,-1487,-1568
17:17:39.538,,-369,-1565,-1667
17:17:39.548,,-347,-1605,-1796
17:17:39.558,,-305,-1591,-1867
17:17:39.568,,-281,-1573,-1978
17:17:39.578,,-263,-1516,-1997
17:17:39.588,,-169,-1304,-1997
17:17:39.598,,-142,-1159,-1934
17:17:39.608,,-137,-1022,-1794
17:17:39.618,,-140,-938,-1639
17:17:39.628,,-208,-842,-1495
17:17:39.638,,-215,-763,-1421
17:17:39.648,,-186,-773,-1335
17:17:39.658,,-172,-737,-1316
17:17:39.668,,-153,-691,-1255
17:17:39.678,,-108,-652,-1208
17:17:39.688,,-59,-590,-1129
17:17:39.698,,-6,-500,-1022
17:17:39.708,,-3,-379,-898
17:17:39.718,,70,-220,-605
17:17:39.728,,59,-197,-481
17:17:39.738,,61,-141,-404
17:17:39.748,,73,-111,-351
17:17:39.758,,61,-125,-327
17:17:39.768,,36,-95,-278
17:17:39.778,,27,-98,-179
17:17:39.788,,-1,-115,-50
17:17:39.798,,-52,-76,129
17:17:39.808,,-62,-1,301
17:17:39.818,,-98,104,408
17:17:39.828,,-134,184,433
17:17:39.838,,-149,201,316
17:17:39.848,,-130,129,223
17:17:39.858,,-154,98,180
17:17:39.868,,-195,77,197
17:17:39.878,,-205,86,282
17:17:39.888,,-257,184,443
17:17:39.898,,-313,298,559
17:17:39.908,,-364,380,639
17:17:39.918,,-370,411,648
17:17:39.928,,-385,384,587
17:17:39.938,,-399,323,544
17:17:39.948,,-444,239,521
17:17:39.958,,-467,192,562
17:17:39.968,,-483,209,733
17:17:39.978,,-624,397,828
17:17:39.988,,-658,521,860
17:17:39.998,,-674,545,889
17:17:40.008,,-716,529,968
17:17:40.018,,-749,468,1059
17:17:40.028,,-835,398,1200
17:17:40.038,,-916,333,1325
17:17:40.048,,-994,325,1400
17:17:40.058,,-1041,382,1511
17:17:40.068,,-1085,428,1530
17:17:40.078,,-1147,470,1547
17:17:40.088,,-1201,517,1643
17:17:40.098,,-1367,428,1986
17:17:40.108,,-1440,374,1998
17:17:40.118,,-1501,392,1998
17:17:40.128,,-1593,449,1998
17:17:40.138,,-1523,527,1998
17:17:40.148,,-1474,573,1998
17:17:40.158,,-1421,603,1998
17:17:40.168,,-1324,631,1998
17:17:40.178,,-1242,639,1998
17:17:40.188,,-1144,652,1978
17:17:40.198,,-1044,658,1842
17:17:40.208,,-984,653,1697
17:17:40.218,,-905,653,1554
17:17:40.228,,-770,638,1377
17:17:40.238,,-708,615,1303
17:17:40.248,,-646,579,1216
17:17:40.258,,-583,518,1148
17:17:40.268,,-541,484,1083
17:17:40.278,,-507,469,982
17:17:40.288,,-479,446,885
17:17:40.298,,-436,385,795
17:17:40.308,,-402,342,692
17:17:40.318,,-376,311,610
17:17:40.328,,-366,269,563
17:17:40.338,,-357,188,541
17:17:40.348,,-335,92,497
17:17:40.358,,-263,-71,386
17:17:40.368,,-270,-50,344
17:17:40.378,,-237,-34,288
17:17:40.388,,-213,-36,201
17:17:40.398,,-198,-23,121
17:17:40.408,,-180,-12,76
17:17:40.418,,-171,-50,29
17:17:40.428,,-162,-91,0
17:17:40.438,,-118,-147,-32
17:17:40.448,,-106,-166,-63
17:17:40.458,,-134,-162,-100
17:17:40.468,,-128,-129,-123
17:17:40.478,,-100,-117,-173
17:17:40.488,,-123,-123,-218
17:17:40.498,,-59,-139,-368
17:17:40.508,,-39,-143,-441
17:17:40.518,,-44,-171,-573
17:17:40.528,,-20,-190,-625
17:17:40.538,,-27,-188,-717
17:17:40.548,,-38,-188,-735
17:17:40.558,,-55,-163,-774
17:17:40.568,,-63,-106,-767
17:17:40.578,,-91,-79,-778
17:17:40.588,,-133,-88,-793
17:17:40.598,,-137,-215,-808
17:17:40.608,,-93,-371,-845
17:17:40.618,,-257,-574,-898
17:17:40.628,,-292,-742,-974
17:17:40.638,,-279,-955,-1065
17:17:40.648,,-272,-1101,-1194
17:17:40.658,,-287,-1235,-1365
17:17:40.668,,-302,-1413,-1527
17:17:40.678,,-210,-1561,-1692
17:17:40.688,,-320,-1687,-1855
17:17:40.698,,-299,-1785,-1986
17:17:40.708,,-202,-1868,-1997
17:17:40.718,,-168,-1847,-1997
17:17:40.728,,-126,-1754,-1997
17:17:40.738,,-62,-1381,-1997
17:17:40.748,,-15,-1189,-1992
17:17:40.758,,-31,-1011,-1850
17:17:40.768,,-53,-820,-1673
17:17:40.778,,-76,-656,-1493
17:17:40.788,,-122,-545,-1310
17:17:40.798,,-148,-501,-1204
17:17:40.808,,-171,-452,-1142
17:17:40.818,,-179,-471,-1067
17:17:40.828,,-135,-471,-1040
17:17:40.949,,28,-83,108
17:17:40.950,,28,-83,108
17:17:40.952,,-40,35,148
17:17:40.953,,-40,35,148
17:17:40.955,,-40,35,148
17:17:40.956,,-40,35,148
17:17:40.957,,-40,35,148
17:17:40.959,,-40,35,148
17:17:40.960,,-40,35,148
17:17:40.961,,-58,90,187
17:17:40.963,,-58,90,187
17:17:40.964,,-58,90,187
17:17:40.965,,-58,90,187
17:17:40.968,,-58,90,187
17:17:40.978,,-76,125,222
17:17:40.988,,-116,214,241
17:17:40.998,,-148,261,232
17:17:41.008,,-185,223,258
17:17:41.018,,-191,145,300
17:17:41.028,,-219,107,380
17:17:41.038,,-289,143,467
17:17:41.048,,-363,179,567
17:17:41.058,,-384,207,635
17:17:41.068,,-407,255,647
17:17:41.078,,-437,300,584
17:17:41.088,,-428,345,450
17:17:41.098,,-366,353,346
17:17:41.108,,-380,264,376
17:17:41.118,,-493,211,549
17:17:41.128,,-611,307,905
17:17:41.138,,-658,357,1020
17:17:41.148,,-667,420,1096
17:17:41.158,,-719,463,1031
17:17:41.168,,-721,495,894
17:17:41.178,,-703,475,780
17:17:41.188,,-746,438,825
17:17:41.198,,-774,408,950
17:17:41.208,,-806,429,1091
17:17:41.218,,-880,489,1224
17:17:41.228,,-974,566,1341
17:17:41.238,,-1070,636,1456
17:17:41.248,,-1165,667,1572
17:17:41.258,,-1202,698,1594
17:17:41.268,,-1249,664,1733
17:17:41.278,,-1310,591,1880
17:17:41.288,,-1376,542,1986
17:17:41.298,,-1430,508,1998
17:17:41.308,,-1449,530,1998
17:17:41.318,,-1436,594,1998
17:17:41.328,,-1385,615,1972
17:17:41.338,,-1390,637,1976
17:17:41.348,,-1272,632,1945
17:17:41.358,,-1320,671,1987
17:17:41.368,,-1278,700,1902
17:17:41.378,,-1219,825,1707
17:17:41.388,,-1012,823,1556
17:17:41.398,,-924,827,1397
17:17:41.408,,-859,797,1279
17:17:41.418,,-804,748,1215
17:17:41.428,,-769,676,1197
17:17:41.438,,-730,610,1216
17:17:41.448,,-685,566,1233
17:17:41.458,,-667,534,1204
17:17:41.468,,-624,511,1175
17:17:41.478,,-525,459,1079
17:17:41.488,,-450,439,927
17:17:41.498,,-408,379,831
17:17:41.508,,-339,231,630
17:17:41.518,,-296,152,585
17:17:41.528,,-287,91,516
17:17:41.538,,-271,20,447
17:17:41.548,,-254,-54,388
17:17:41.558,,-225,-114,342
17:17:41.568,,-201,-134,292
17:17:41.578,,-201,-169,229
17:17:41.588,,-160,-196,160
17:17:41.598,,-106,-193,84
17:17:41.608,,-75,-193,-22
17:17:41.618,,-52,-162,-111
17:17:41.628,,-45,-101,-179
17:17:41.638,,-27,-71,-255
17:17:41.648,,-13,-35,-287
17:17:41.658,,-17,-35,-344
17:17:41.668,,-22,-61,-395
17:17:41.678,,12,-72,-429
17:17:41.688,,26,-99,-468
17:17:41.698,,55,-97,-542
17:17:41.708,,44,-31,-575
17:17:41.718,,30,-18,-606
17:17:41.728,,2,-3,-627
17:17:41.738,,-8,10,-623
17:17:41.748,,-46,-32,-634
17:17:41.758,,-48,-133,-658
17:17:41.768,,-50,-276,-692
17:17:41.778,,-87,-275,-724
17:17:41.788,,-68,-278,-769
17:17:41.798,,-73,-259,-791
17:17:41.808,,-113,-241,-834
17:17:41.818,,-86,-332,-885
17:17:41.828,,-93,-438,-925
17:17:41.838,,-104,-551,-959
17:17:41.848,,-114,-667,-978
17:17:41.858,,-186,-773,-985
17:17:41.868,,-203,-970,-1005
17:17:41.878,,-250,-1164,-1020
17:17:41.888,,-291,-1316,-1294
17:17:41.898,,-304,-1563,-1404
17:17:41.908,,-313,-1704,-1470
17:17:41.918,,-306,-1844,-1588
17:17:41.928,,-276,-1958,-1694
17:17:41.938,,-235,-1969,-1873
17:17:41.948,,-147,-1875,-1981
17:17:41.958,,-88,-1738,-1997
17:17:41.968,,-2,-1640,-1997
17:17:41.978,,112,-1448,-1997
17:17:41.988,,191,-1232,-1997
17:17:41.998,,176,-1022,-1997
17:17:42.008,,143,-849,-1936
17:17:42.018,,127,-812,-1621
17:17:42.028,,66,-802,-1495
17:17:42.038,,40,-754,-1432
17:17:42.048,,43,-742,-1310
17:17:42.058,,63,-765,-1281
17:17:42.068,,79,-721,-1224
17:17:42.078,,88,-634,-1135
17:17:42.088,,110,-589,-990
17:17:42.098,,109,-512,-840
17:17:42.108,,118,-433,-710
17:17:42.118,,124,-335,-590
17:17:42.128,,134,-264,-511
17:17:42.138,,180,-251,-457
17:17:42.148,,206,-204,-354
17:17:42.158,,181,-140,-287
17:17:42.168,,167,-87,-229
17:17:42.178,,141,-20,-200
17:17:42.188,,134,36,-172
17:17:42.198,,160,65,-110
17:17:42.208,,125,116,-12
17:17:42.218,,78,145,70
17:17:42.228,,87,156,99
17:17:42.238,,63,148,127
17:17:42.248,,77,140,127
17:17:42.258,,94,95,117
17:17:42.268,,53,128,131
17:17:42.278,,-9,277,159
17:17:42.288,,-21,331,233
17:17:42.298,,-58,355,352
17:17:42.308,,-133,339,524
17:17:42.423,,-723,581,1597
17:17:42.424,,-723,581,1597
17:17:42.426,,-723,581,1597
17:17:42.427,,-829,583,1621
17:17:42.429,,-829,583,1621
17:17:42.430,,-829,583,1621
17:17:42.431,,-829,583,1621
17:17:42.433,,-829,583,1621
17:17:42.434,,-829,583,1621
17:17:42.435,,-829,583,1643
17:17:42.437,,-883,607,1643
17:17:42.438,,-883,607,1643
17:17:42.439,,-883,607,1643
17:17:42.448,,-985,583,1659
17:17:42.458,,-1093,577,1776
17:17:42.468,,-1168,588,1941
17:17:42.478,,-1244,589,1998
17:17:42.488,,-1335,607,1998
17:17:42.498,,-1382,617,1998
17:17:42.508,,-1377,628,1998
17:17:42.518,,-1370,680,1998
17:17:42.528,,-1329,764,1997
17:17:42.538,,-1267,724,1888
17:17:42.548,,-1179,706,1936
17:17:42.558,,-1152,700,1890
17:17:42.568,,-1125,675,1850
17:17:42.578,,-1088,699,1804
17:17:42.588,,-997,717,1725
17:17:42.598,,-921,773,1599
17:17:42.608,,-848,803,1440
17:17:42.618,,-768,807,1292
17:17:42.628,,-696,768,1154
17:17:42.638,,-643,720,1043
17:17:42.648,,-619,678,977
17:17:42.658,,-618,622,937
17:17:42.668,,-587,510,926
17:17:42.678,,-581,461,872
17:17:42.688,,-551,408,817
17:17:42.698,,-512,375,748
17:17:42.708,,-475,392,689
17:17:42.718,,-426,358,636
17:17:42.728,,-387,302,560
17:17:42.738,,-342,238,491
17:17:42.748,,-349,217,445
17:17:42.758,,-329,146,459
17:17:42.768,,-317,63,472
17:17:42.778,,-323,19,437
17:17:42.788,,-297,-4,227
17:17:42.798,,-188,-55,124
17:17:42.808,,-163,-66,40
17:17:42.818,,-136,-39,0
17:17:42.828,,-128,-53,-37
17:17:42.838,,-70,-117,-37
17:17:42.848,,-83,-140,-27
17:17:42.858,,-75,-134,-29
17:17:42.868,,-24,-131,-54
17:17:42.878,,-1,-129,-116
17:17:42.888,,39,-136,-202
17:17:42.898,,69,-110,-309
17:17:42.908,,82,-62,-396
17:17:42.918,,137,-17,-477
17:17:42.928,,121,-15,-605
17:17:42.938,,117,-13,-583
17:17:42.948,,130,-89,-640
17:17:42.958,,114,-126,-686
17:17:42.968,,127,-109,-737
17:17:42.978,,121,-86,-812
17:17:42.988,,65,-90,-857
17:17:42.998,,18,-184,-875
17:17:43.008,,-33,-333,-909
17:17:43.018,,-66,-499,-1004
17:17:43.028,,-143,-696,-1115
17:17:43.038,,-164,-1016,-1225
17:17:43.048,,-176,-1559,-1479
17:17:43.058,,-176,-1660,-1703
17:17:43.068,,-92,-1655,-1856
17:17:43.078,,-16,-1736,-1997
17:17:43.088,,73,-1706,-1997
17:17:43.098,,162,-1703,-1997
17:17:43.108,,252,-1745,-1997
17:17:43.118,,252,-1657,-1997
17:17:43.128,,273,-1463,-1997
17:17:43.138,,291,-1241,-1997
17:17:43.148,,271,-1031,-1997
17:17:43.158,,252,-882,-1979
17:17:43.168,,275,-750,-1776
17:17:43.178,,187,-520,-1448
17:17:43.188,,154,-441,-1319
17:17:43.198,,107,-388,-1189
17:17:43.208,,60,-366,-1061
17:17:43.218,,58,-346,-959
17:17:43.228,,93,-340,-851
17:17:43.238,,98,-403,-723
17:17:43.248,,90,-374,-670
17:17:43.258,,117,-302,-578
17:17:43.268,,103,-209,-528
17:17:43.278,,91,-121,-472
17:17:43.288,,78,-81,-396
17:17:43.298,,71,-79,-344
17:17:43.308,,79,-73,-310
17:17:43.318,,58,-115,-262
17:17:43.328,,87,-195,-142
17:17:43.338,,72,-198,-47
17:17:43.348,,78,-45,86
17:17:43.358,,14,130,197
17:17:43.368,,-52,200,260
17:17:43.378,,-86,208,265
17:17:43.388,,-107,171,205
17:17:43.398,,-111,142,159
17:17:43.408,,-145,100,70
17:17:43.418,,-137,62,96
17:17:43.428,,-174,69,221
17:17:43.438,,-186,134,333
17:17:43.448,,-252,241,493
17:17:43.458,,-322,296,584
17:17:43.468,,-359,337,588
17:17:43.478,,-379,365,552
17:17:43.488,,-425,382,507
17:17:43.498,,-416,341,474
17:17:43.508,,-406,321,523
17:17:43.518,,-410,298,612
17:17:43.528,,-423,297,700
17:17:43.538,,-475,382,791
17:17:43.548,,-536,493,874
17:17:43.558,,-514,527,931
17:17:43.568,,-497,517,903
17:17:43.578,,-507,510,954
17:17:43.588,,-554,513,1051
17:17:43.598,,-640,532,1148
17:17:43.608,,-685,578,1200
17:17:43.618,,-753,625,1346
17:17:43.628,,-796,690,1394
17:17:43.638,,-882,749,1496
17:17:43.648,,-934,721,1682
17:17:43.658,,-951,703,1851
17:17:43.668,,-1056,680,1992
17:17:43.678,,-1098,645,1998
17:17:43.688,,-1288,723,1998
17:17:43.698,,-1304,810,1998
17:17:43.708,,-1184,862,1998
17:17:43.718,,-1147,902,1998
17:17:43.728,,-1099,954,1998
17:17:43.738,,-1063,1003,1998
17:17:43.748,,-1017,1004,1998
17:17:43.758,,-955,998,1954
17:17:43.768,,-897,1053,1871
17:17:43.778,,-844,1101,1755
17:17:43.788,,-790,1103,1627
17:17:43.908,,-362,298,623
17:17:43.910,,-362,298,623
17:17:43.911,,-359,267,555
17:17:43.912,,-359,267,555
17:17:43.914,,-359,267,555
17:17:43.915,,-359,267,555
17:17:43.916,,-359,267,555
17:17:43.918,,-359,267,555
17:17:43.919,,-359,267,555
17:17:43.921,,-357,191,477
17:17:43.922,,-357,191,477
17:17:43.923,,-357,191,477
17:17:43.925,,-357,191,477
17:17:43.928,,-357,191,477
17:17:43.938,,-335,77,364
17:17:43.948,,-317,-79,299
17:17:43.958,,-317,-94,251
17:17:43.968,,-296,-110,214
17:17:43.978,,-299,-125,181
17:17:43.988,,-318,-143,174
17:17:43.998,,-331,-178,150
17:17:44.008,,-328,-193,104
17:17:44.018,,-321,-205,42
17:17:44.028,,-297,-234,-18
17:17:44.038,,-266,-258,-79
17:17:44.048,,-241,-251,-153
17:17:44.058,,-230,-244,-228
17:17:44.068,,-196,-177,-351
17:17:44.078,,-154,-144,-377
17:17:44.088,,-128,-109,-405
17:17:44.098,,-97,-84,-488
17:17:44.108,,-71,-80,-501
17:17:44.118,,-101,-93,-573
17:17:44.128,,-57,-97,-596
17:17:44.138,,-14,-93,-640
17:17:44.148,,-10,-81,-728
17:17:44.158,,25,-40,-814
17:17:44.168,,66,-18,-891
17:17:44.178,,59,23,-907
17:17:44.188,,31,-7,-901
17:17:44.198,,41,-75,-872
17:17:44.208,,21,-166,-859
17:17:44.218,,-20,-290,-865
17:17:44.228,,-51,-416,-954
17:17:44.238,,-9,-598,-908
17:17:44.248,,-82,-750,-1112
17:17:44.258,,-126,-903,-1171
17:17:44.268,,-90,-1022,-1227
17:17:44.278,,-137,-1225,-1425
17:17:44.288,,-123,-1421,-1577
17:17:44.298,,-86,-1485,-1773
17:17:44.308,,-55,-1475,-1953
17:17:44.318,,-58,-1496,-1997
17:17:44.328,,90,-1601,-1997
17:17:44.338,,101,-1571,-1997
17:17:44.348,,93,-1418,-1997
17:17:44.358,,100,-1291,-1997
17:17:44.368,,82,-1159,-1997
17:17:44.378,,62,-1025,-1955
17:17:44.388,,30,-925,-1701
17:17:44.398,,3,-880,-1470
17:17:44.408,,-23,-832,-1334
17:17:44.418,,4,-759,-1293
17:17:44.428,,26,-732,-1211
17:17:44.438,,26,-658,-1159
17:17:44.448,,64,-558,-1101
17:17:44.458,,72,-418,-853
17:17:44.468,,92,-369,-714
17:17:44.478,,156,-245,-593
17:17:44.488,,163,-152,-441
17:17:44.498,,153,-114,-309
17:17:44.508,,193,-112,-260
17:17:44.518,,209,-105,-260
17:17:44.528,,205,-124,-288
17:17:44.538,,173,-138,-297
17:17:44.548,,159,-122,-244
17:17:44.558,,169,-82,-190
17:17:44.568,,175,-48,-102
17:17:44.578,,177,-16,155
17:17:44.588,,188,154,245
17:17:44.598,,145,223,308
17:17:44.608,,113,238,280
17:17:44.618,,104,229,210
17:17:44.628,,106,232,131
17:17:44.638,,105,244,146
17:17:44.648,,75,276,253
17:17:44.658,,30,313,379
17:17:44.668,,10,339,519
17:17:44.678,,-48,400,693
17:17:44.688,,-142,488,895
17:17:44.698,,-241,512,1011
17:17:44.708,,-290,566,857
17:17:44.718,,-187,550,774
17:17:44.728,,-216,556,751
17:17:44.738,,-219,599,890
17:17:44.748,,-281,624,1036
17:17:44.758,,-354,693,1180
