Sensors' Acquisition [Hz]: Gyro@104.0 
hh:mm:ss.ms, Annotation , GyroX [mdps], GyroY, GyroZ
16:19:18.337,,-21140,-29820,210140
16:19:18.347,,-22050,-33180,227640
16:19:18.357,,-23870,-36120,243600
16:19:18.367,,-24290,-37450,257180
16:19:18.377,,-20370,-36960,267680
16:19:18.387,,-13160,-36820,278810
16:19:18.397,,-10080,-37520,291130
16:19:18.407,,-13720,-37590,302470
16:19:18.417,,-24010,-37730,313180
16:19:18.427,>Gesture,,,
16:19:18.428,,-35980,-38500,323960
16:19:18.437,,-44800,-37660,335930
16:19:18.447,,-48020,-33950,344330
16:19:18.457,,-25200,-34090,346220
16:19:18.467,,-10500,-36400,343980
16:19:18.477,,-6090,-39130,343140
16:19:18.487,,-9800,-41510,344330
16:19:18.497,,-15890,-43610,344750
16:19:18.507,,-20930,-44520,343070
16:19:18.517,,-21000,-41160,338100
16:19:18.527,,-14700,-34510,329140
16:19:18.537,,-3220,-27860,318430
16:19:18.547,,9030,-22890,305620
16:19:18.557,,16450,-20790,292320
16:19:18.567,,17290,-17150,280560
16:19:18.577,,17150,-12180,267120
16:19:18.587,,17990,-3220,233800
16:19:18.597,,14560,1680,217210
16:19:18.607,,6650,7140,197610
16:19:18.617,,1260,9240,173180
16:19:18.627,,1400,8680,146020
16:19:18.637,,3290,8540,113610
16:19:18.647,,6300,8820,76790
16:19:18.657,,10780,7770,39830
16:19:18.667,,16520,5250,5880
16:19:18.677,,20720,2940,-24500
16:19:18.687,,21070,700,-50260
16:19:18.697,,19250,-1400,-72170
16:19:18.707,,17780,-3570,-92750
16:19:18.717,,16520,-8680,-131740
16:19:18.727,,15540,-10570,-150710
16:19:18.737,,15050,-11340,-169680
16:19:18.747,,14910,-11410,-186760
16:19:18.757,,14560,-11760,-201740
16:19:18.767,,13440,-12390,-214970
16:19:18.777,,10850,-13300,-226520
16:19:18.787,,5530,-14280,-237440
16:19:18.797,,-1750,-15750,-246540
16:19:18.807,,-9240,-16870,-254310
16:19:18.817,,-14280,-17780,-260610
16:19:18.827,,-18620,-18620,-265720
16:19:18.837,,-24780,-18550,-276010
16:19:18.847,,-30730,-12180,-282030
16:19:18.857,,-28910,-6020,-286790
16:19:18.867,,-25690,2800,-289310
16:19:18.877,,-17640,12250,-289450
16:19:18.887,,-4830,17710,-290430
16:19:18.897,,8820,18340,-290990
16:19:18.907,,20300,16870,-291060
16:19:18.917,,30450,15540,-290500
16:19:18.927,,42490,14770,-289030
16:19:18.937,,51800,13650,-285110
16:19:18.947,,52500,13370,-276780
16:19:18.957,,44240,17080,-265090
16:19:18.967,,28840,31920,-248360
16:19:18.977,,6650,37170,-245070
16:19:18.987,,3430,40950,-245350
16:19:18.997,,7910,39060,-244650
16:19:19.007,,20650,33740,-247240
16:19:19.017,,23030,29050,-249270
16:19:19.027,,13370,27300,-244860
16:19:19.037,,560,25270,-236250
16:19:19.047,,-8260,22680,-226170
16:19:19.057,,-7700,21280,-215040
16:19:19.067,,-5600,23660,-199920
16:19:19.077,,-1680,27300,-182000
16:19:19.087,,7560,28840,-164990
16:19:19.097,,22680,29750,-144480
16:19:19.107,,27930,31430,-135730
16:19:19.117,,37660,30380,-123690
16:19:19.127,,49840,24500,-107100
16:19:19.137,,56560,16450,-87080
16:19:19.147,,54320,9380,-66290
16:19:19.157,,44240,3290,-45010
16:19:19.167,,31220,-2660,-24920
16:19:19.177,,19390,-6790,-5460
16:19:19.187,,10780,-9380,15050
16:19:19.197,,6230,-10780,34930
16:19:19.207,,6930,-13300,56560
16:19:19.217,,6510,-14280,76860
16:19:19.227,,12040,-12600,115360
16:19:19.237,,10220,-14210,131740
16:19:19.247,,6790,-15470,145460
16:19:19.257,,6370,-17430,156310
16:19:19.267,,5880,-19180,165270
16:19:19.277,,3430,-19390,174160
16:19:19.287,,630,-18480,183610
16:19:19.297,,-4480,-19460,193900
16:19:19.307,,-13510,-22540,203700
16:19:19.317,,-21840,-23940,213150
16:19:19.327,,-27020,-23800,221900
16:19:19.337,,-32060,-24430,229950
16:19:19.347,,-36750,-26530,237230
16:19:19.357,,-33040,-27440,246120
16:19:19.367,,-28140,-26950,248430
16:19:19.377,,-25130,-26740,252280
16:19:19.387,,-27650,-25620,258580
16:19:19.397,,-33880,-23240,266560
16:19:19.407,,-37730,-20510,275240
16:19:19.417,,-37380,-17850,282380
16:19:19.427,,-35630,-16800,286720
16:19:19.437,,-33390,-17570,287980
16:19:19.447,,-32200,-19040,285250
16:19:19.457,,-32480,-18970,280140
16:19:19.467,,-37590,-17990,276640
16:19:19.477,,-45220,-17640,275240
16:19:19.487,,-46130,-17290,277410
16:19:19.497,,-43890,-18270,279300
16:19:19.507,,-43050,-19670,280280
16:19:19.632,,-25480,10640,152530
16:19:19.633,,-25480,10640,152530
16:19:19.634,,-25480,10640,152530
16:19:19.636,,-20230,10010,137550
16:19:19.637,,-20230,10010,137550
16:19:19.638,,-20230,10010,137550
16:19:19.640,,-20230,10010,137550
16:19:19.641,,-20230,10010,137550
16:19:19.643,,-20230,10010,137550
16:19:19.644,,-20230,10010,137550
16:19:19.645,,-12740,9590,121800
16:19:19.647,,-12740,9590,121800
16:19:19.648,,-12740,9590,121800
16:19:19.649,,-12740,9590,121800
16:19:19.657,,-3010,9520,102900
16:19:19.667,,7070,9520,83020
16:19:19.677,,14700,10710,65730
16:19:19.687,,19880,12320,50960
16:19:19.697,,23520,12880,36120
16:19:19.707,,25270,12810,19880
16:19:19.717,,26390,11760,1610
16:19:19.727,,26040,8960,-17850
16:19:19.737,,22190,280,-56630
16:19:19.747,,16450,-1610,-75320
16:19:19.757,,17710,-3920,-94220
16:19:19.767,,20370,-8330,-114310
16:19:19.777,,23520,-13020,-135170
16:19:19.787,,26670,-15540,-155890
16:19:19.797,,29190,-16100,-175910
16:19:19.807,,29750,-16240,-195300
16:19:19.817,,27860,-17080,-214060
16:19:19.827,,21490,-17920,-231070
16:19:19.837,,10850,-17360,-248080
16:19:19.847,,-910,-17570,-262570
16:19:19.857,,-11620,-18410,-274680
16:19:19.867,,-34090,-12530,-295400
16:19:19.877,,-37800,-5040,-303940
16:19:19.887,,-31570,3780,-311500
16:19:19.897,,-17570,11130,-316050
16:19:19.907,,-910,15610,-318850
16:19:19.917,,12600,17710,-319550
16:19:19.927,,18690,17850,-318010
16:19:19.937,,13160,16310,-318920
16:19:19.947,,-3290,15330,-320460
16:19:19.957,,-25480,16310,-322770
16:19:19.967,,-47320,19740,-325290
16:19:19.977,,-57330,24360,-328160
16:19:19.987,,-48720,29890,-329280
16:19:19.997,,8890,43330,-325990
16:19:20.007,,37170,45640,-321230
16:19:20.017,,48650,43750,-313950
16:19:20.027,,38500,40180,-303590
16:19:20.037,,12390,36330,-291060
16:19:20.047,,-16730,36120,-277480
16:19:20.057,,-32900,40880,-263340
16:19:20.067,,-26740,44730,-247240
16:19:20.077,,-3640,46200,-229810
16:19:20.087,,20370,46830,-213360
16:19:20.097,,34300,46270,-197750
16:19:20.107,,38360,44170,-180670
16:19:20.117,,35280,43330,-160510
16:19:20.127,,19530,44730,-115570
16:19:20.137,,21140,42560,-95550
16:19:20.147,,27370,38220,-78960
16:19:20.157,,31150,31920,-65870
16:19:20.167,,29330,25690,-55230
16:19:20.177,,22470,20300,-45150
16:19:20.187,,13370,15400,-34090
16:19:20.197,,5110,10430,-21140
16:19:20.207,,-2380,5670,-5810
16:19:20.217,,-8820,1330,11410
16:19:20.227,,-14490,-2730,31780
16:19:20.237,,-18690,-5740,54670
16:19:20.247,,-20090,-7140,97790
16:19:20.257,,-12250,-8540,115150
16:19:20.267,,-5460,-10780,128520
16:19:20.277,,-910,-13930,138110
16:19:20.287,,-630,-16940,146510
16:19:20.297,,-3990,-19950,157150
16:19:20.307,,-9240,-23730,169050
16:19:20.317,,-14210,-26600,182630
16:19:20.327,,-18060,-29190,196210
16:19:20.337,,-22680,-31640,209860
16:19:20.347,,-25340,-32900,223300
16:19:20.357,,-25060,-34020,233450
16:19:20.367,,-22330,-35630,240100
16:19:20.377,,-17850,-34510,246680
16:19:20.387,,-11060,-32200,247660
16:19:20.397,,-10010,-29540,249760
16:19:20.407,,-12880,-27020,254800
16:19:20.417,,-19810,-26180,261170
16:19:20.427,,-27440,-25620,268380
16:19:20.437,,-34790,-23730,272440
16:19:20.447,,-31780,-23100,272720
16:19:20.457,,-20300,-23660,273770
16:19:20.467,,-13930,-21420,272510
16:19:20.477,,-13440,-17920,270690
16:19:20.487,,-11830,-17220,270900
16:19:20.497,,-9030,-18830,271390
16:19:20.507,,-9590,-18550,276500
16:19:20.517,,-16870,-16030,279230
16:19:20.527,,-19950,-14210,280560
16:19:20.537,,-17710,-14140,279860
16:19:20.547,,-12180,-13720,277130
16:19:20.557,,-5950,-11130,273910
16:19:20.567,,1120,-9310,272090
16:19:20.577,,8260,-8330,274260
16:19:20.587,,15260,-7070,278670
16:19:20.597,,19600,-5250,282310
16:19:20.607,,18970,-3990,283780
16:19:20.617,,13930,-2590,284690
16:19:20.627,,3430,70,281960
16:19:20.637,,-8260,4340,273140
16:19:20.647,,-7770,6370,265230
16:19:20.657,,-4480,7350,254730
16:19:20.667,,2520,7490,245840
16:19:20.677,,10920,8470,234640
16:19:20.687,,19040,11200,216300
16:19:20.697,,24080,13720,193620
16:19:20.707,,24570,14910,170800
16:19:20.717,,22330,16520,148050
16:19:20.837,,6720,-21490,-161420
16:19:20.838,,6720,-21490,-161420
16:19:20.839,,6720,-21490,-161420
16:19:20.841,,6720,-21490,-170660
16:19:20.842,,-4200,-22330,-170660
16:19:20.844,,-4200,-22330,-170660
16:19:20.845,,-4200,-22330,-170660
16:19:20.846,,-4200,-22330,-170660
16:19:20.848,,-4200,-22330,-170660
16:19:20.849,,-4200,-22330,-170660
16:19:20.850,,-14070,-21560,-179830
16:19:20.852,,-14070,-21560,-179830
16:19:20.853,,-14070,-21560,-179830
16:19:20.857,,-14070,-21560,-179830
16:19:20.867,,-18410,-20020,-190470
16:19:20.877,,-12600,-20230,-200270
16:19:20.887,,1540,-20090,-219450
16:19:20.897,,31640,-20580,-229040
16:19:20.907,,41650,-20440,-238280
16:19:20.917,,47740,-20580,-246890
16:19:20.927,,48790,-21840,-254100
16:19:20.937,,44940,-22260,-261590
16:19:20.947,,35490,-20650,-269150
16:19:20.957,,20230,-17920,-276780
16:19:20.967,,-140,-14980,-283920
16:19:20.977,,-21910,-11410,-290500
16:19:20.987,,-41230,-6230,-298970
16:19:20.997,,-51940,1050,-308210
16:19:21.007,,-49280,10220,-315910
16:19:21.017,,-35490,19880,-322980
16:19:21.027,,8750,25970,-323330
16:19:21.037,,28980,24220,-319060
16:19:21.047,,42490,22470,-311080
16:19:21.057,,42140,22120,-301560
16:19:21.067,,29960,24150,-293160
16:19:21.077,,18480,26880,-287210
16:19:21.087,,16730,28840,-281610
16:19:21.097,,20580,31360,-274400
16:19:21.107,,22680,33110,-270760
16:19:21.117,,20090,32270,-272230
16:19:21.127,,18690,29750,-274050
16:19:21.137,,21070,27650,-275940
16:19:21.147,,24710,25690,-273280
16:19:21.157,,38150,26530,-267960
16:19:21.167,,48370,27580,-258650
16:19:21.177,,55790,28490,-246960
16:19:21.187,,55930,27720,-236530
16:19:21.197,,48510,23240,-230160
16:19:21.207,,35910,16940,-224210
16:19:21.217,,24220,12040,-216930
16:19:21.227,,23590,8890,-207480
16:19:21.237,,32620,9240,-194670
16:19:21.247,,45990,13510,-179480
16:19:21.257,,58870,20090,-162680
16:19:21.267,,66500,26320,-145600
16:19:21.277,,53830,28980,-109410
16:19:21.287,,40670,24360,-91630
16:19:21.297,,30310,16730,-74340
16:19:21.307,,18480,10360,-54880
16:19:21.317,,8540,5390,-31780
16:19:21.327,,3710,1120,-6370
16:19:21.337,,420,-1750,19880
16:19:21.347,,-1470,-1470,45710
16:19:21.357,,2730,1330,69580
16:19:21.367,,12040,5460,90370
16:19:21.377,,16100,7910,111090
16:19:21.387,,15470,5460,127680
16:19:21.397,,11060,-420,140000
16:19:21.407,,-15190,-12320,158690
16:19:21.417,,-30520,-14770,167720
16:19:21.427,,-40880,-16800,177310
16:19:21.437,,-48370,-15470,189770
16:19:21.447,,-50610,-15820,199500
16:19:21.457,,-51030,-15960,208040
16:19:21.467,,-52010,-15120,217840
16:19:21.477,,-53830,-16030,227570
16:19:21.487,,-57190,-17920,238770
16:19:21.497,,-60270,-17150,248850
16:19:21.507,,-57470,-17360,257530
16:19:21.517,,-49980,-19670,267330
16:19:21.527,,-48090,-19460,276360
16:19:21.537,,-45850,-18480,296030
16:19:21.547,,-39550,-17640,304710
16:19:21.557,,-31430,-15820,312480
16:19:21.567,,-23450,-10710,319760
16:19:21.577,,-14840,-4760,325570
16:19:21.587,,-9240,-700,331660
16:19:21.597,,-15330,2030,338170
16:19:21.607,,-26880,2100,343770
16:19:21.617,,-31710,-1120,345240
16:19:21.627,,-33110,-490,343980
16:19:21.637,,-33600,5390,340760
16:19:21.647,,-27370,11060,336840
16:19:21.657,,-16660,13720,330260
16:19:21.667,,-5950,17780,328860
16:19:21.677,,-7700,20510,325080
16:19:21.687,,-11690,24080,320250
16:19:21.697,,-14000,27510,314860
16:19:21.707,,-12040,28840,309400
16:19:21.717,,-11620,29540,303310
16:19:21.727,,-12250,31710,294700
16:19:21.737,,-14420,32830,284970
16:19:21.747,,-16730,31710,275800
16:19:21.757,,-18060,32200,263620
16:19:21.767,,-12600,32830,249130
16:19:21.777,,1120,31850,234430
16:19:21.787,,9870,31360,201040
16:19:21.797,,-2240,30940,186340
16:19:21.807,,-13580,31430,172760
16:19:21.817,,-19040,32550,157500
16:19:21.827,,-18200,32970,139020
16:19:21.837,,-14350,31290,116900
16:19:21.847,,-8610,27370,90720
16:19:21.857,,-980,21140,61320
16:19:21.867,,8820,12740,30310
16:19:21.877,,18900,3430,910
16:19:21.887,,26040,-5180,-25550
16:19:21.897,,27160,-11900,-48650
16:19:21.907,,20930,-16310,-67900
16:19:21.917,,-3710,-19950,-104300
16:19:21.927,,-1960,-21000,-124390
16:19:22.052,,12880,-33250,-304920
16:19:22.053,,12880,-33250,-304920
16:19:22.054,,12880,-33250,-304920
16:19:22.056,,12880,-33250,-317450
16:19:22.057,,-1050,-32480,-317450
16:19:22.059,,-1050,-32480,-317450
16:19:22.060,,-1050,-32480,-317450
16:19:22.061,,-1050,-32480,-317450
16:19:22.063,,-1050,-32480,-317450
16:19:22.064,,-1050,-32480,-317450
16:19:22.065,,-16520,-31010,-329420
16:19:22.067,,-16520,-31010,-329420
16:19:22.068,,-16520,-31010,-329420
16:19:22.070,,-16520,-31010,-329420
16:19:22.077,,-32410,-28630,-339920
16:19:22.087,,-48790,-26180,-350420
16:19:22.097,,-60480,-22960,-360150
16:19:22.107,,-57190,-19460,-370720
16:19:22.117,,-46620,-12600,-377790
16:19:22.127,,-36260,-4270,-385560
16:19:22.137,,-26810,2100,-387940
16:19:22.147,,-21070,7140,-383250
16:19:22.157,,-24150,13090,-374500
16:19:22.167,,-33600,18690,-367010
16:19:22.177,,-42560,35910,-350350
16:19:22.187,,-19320,46270,-332990
16:19:22.197,,16170,55510,-313740
16:19:22.207,,51520,62300,-291690
16:19:22.217,,82320,63000,-272370
16:19:22.227,,100660,56280,-256200
16:19:22.237,,99190,45640,-239610
16:19:22.247,,79310,33320,-227920
16:19:22.257,,45500,21980,-222320
16:19:22.267,,20020,10710,-220220
16:19:22.277,,14560,4620,-214200
16:19:22.287,,20160,7420,-203070
16:19:22.297,,21910,16170,-168980
16:19:22.307,,19740,30380,-153300
16:19:22.317,,25480,33040,-138390
16:19:22.327,,30100,34370,-126770
16:19:22.337,,31290,33950,-117740
16:19:22.347,,28350,34160,-109410
16:19:22.357,,27790,32410,-100240
16:19:22.367,,30100,28980,-87780
16:19:22.377,,24150,26810,-72800
16:19:22.387,,9870,23100,-55580
16:19:22.397,,-5530,17290,-34720
16:19:22.407,,-16730,11410,-12040
16:19:22.417,,-16170,6650,11830
16:19:22.427,,-10430,3360,61040
16:19:22.437,,3080,-2450,83370
16:19:22.447,,9380,-3570,103110
16:19:22.457,,9030,-4410,122360
16:19:22.467,,7070,-5950,139720
16:19:22.477,,8120,-7490,154630
16:19:22.487,,7840,-10220,166880
16:19:22.497,,2800,-12950,178570
16:19:22.507,,-4760,-14350,191800
16:19:22.517,,-14070,-16100,206710
16:19:22.527,,-24640,-17640,222600
16:19:22.537,,-30520,-18480,237160
16:19:22.547,,-29050,-19740,246260
16:19:22.557,,-24500,-20720,265440
16:19:22.567,,-18480,-23730,269360
16:19:22.577,,-23870,-26880,276570
16:19:22.587,,-32550,-28210,285390
16:19:22.597,,-42000,-29890,295610
16:19:22.607,,-51870,-33250,305200
16:19:22.617,,-56700,-38080,309470
16:19:22.627,,-52500,-42560,312410
16:19:22.637,,-42840,-42980,309540
16:19:22.647,,-32830,-41300,308490
16:19:22.657,,-20160,-38990,311220
16:19:22.667,,-8330,-33600,316610
16:19:22.677,,-1050,-25410,324030
16:19:22.687,,6020,-11480,330190
16:19:22.697,,630,-6440,331450
16:19:22.707,,-4060,-3430,334250
16:19:22.717,,-8750,-770,337190
16:19:22.727,,-11060,3500,338100
16:19:22.737,,-9800,7140,336630
16:19:22.747,,-3920,8960,334320
16:19:22.757,,6230,11270,331520
16:19:22.767,,12880,13300,326550
16:19:22.777,,10430,14840,320670
16:19:22.787,,3780,18060,312760
16:19:22.797,,-2170,22610,300930
16:19:22.807,,-6930,27160,286160
16:19:22.817,,-9730,34230,252910
16:19:22.827,,-3500,36260,236320
16:19:22.837,,4690,37030,220920
16:19:22.847,,14140,37100,205100
16:19:22.857,,22750,36190,186480
16:19:22.867,,26740,33950,164010
16:19:22.877,,26390,30170,138950
16:19:22.887,,24010,26950,112000
16:19:22.897,,20440,24220,83650
16:19:22.907,,14840,21490,56910
16:19:22.917,,7420,19390,32130
16:19:22.927,,1190,17500,7560
16:19:22.937,,-420,14420,-17570
16:19:22.947,,10360,420,-68390
16:19:22.957,,16520,-8750,-93730
16:19:22.967,,21630,-17290,-116620
16:19:22.977,,24290,-24570,-136150
16:19:22.987,,24360,-30380,-155190
16:19:22.997,,21770,-34440,-172270
16:19:23.007,,18270,-37870,-189140
16:19:23.017,,15960,-41650,-206220
16:19:23.027,,13860,-46270,-223720
16:19:23.037,,15120,-50330,-240940
16:19:23.047,,11970,-51520,-253680
16:19:23.057,,19180,-54040,-273210
16:19:23.067,,28070,-58940,-299390
16:19:23.077,,17290,-59290,-309400
16:19:23.087,,4760,-56210,-314790
16:19:23.097,,-10150,-51730,-318080
16:19:23.107,,-21350,-46970,-323470
16:19:23.117,,-29330,-44240,-329560
16:19:23.127,,-35980,-43470,-335300
16:19:23.246,,-29400,10290,-304710
16:19:23.247,,-29400,10290,-304710
16:19:23.249,,-29400,10290,-304710
16:19:23.250,,-29400,10290,-304710
16:19:23.251,,-29400,10290,-304710
16:19:23.253,,-33600,13860,-294910
16:19:23.254,,-33600,13860,-294910
16:19:23.255,,-33600,13860,-294910
16:19:23.257,,-33600,13860,-294910
16:19:23.258,,-33600,13860,-294910
16:19:23.260,,-33600,13860,-294910
16:19:23.261,,-33600,13860,-294910
16:19:23.262,,-30030,16730,-285880
16:19:23.267,,-30030,16730,-285880
16:19:23.277,,-17360,17990,-276360
16:19:23.287,,-3080,19950,-265300
16:19:23.297,,7420,21630,-252420
16:19:23.307,,12180,21910,-237930
16:19:23.317,,8890,22610,-221060
16:19:23.327,,-8960,23730,-196000
16:19:23.337,,-12040,26110,-186060
16:19:23.347,,-8330,29540,-175770
16:19:23.357,,1050,31990,-164990
16:19:23.367,,12530,33390,-152530
16:19:23.377,,22190,34370,-138110
16:19:23.387,,30520,35000,-125090
16:19:23.397,,33180,33950,-113820
16:19:23.407,,27160,28980,-104790
16:19:23.417,,15680,19810,-97230
16:19:23.427,,2170,8960,-86660
16:19:23.437,,-9100,-2100,-68600
16:19:23.447,,-11900,-12950,-43470
16:19:23.457,,-3640,-23100,16380
16:19:23.467,,1610,-20790,44730
16:19:23.477,,6300,-15540,68810
16:19:23.487,,11270,-10220,88410
16:19:23.497,,15400,-6720,103740
16:19:23.507,,15820,-4970,116410
16:19:23.517,,13300,-5250,127610
16:19:23.527,,9870,-6440,137340
16:19:23.537,,7630,-7490,147210
16:19:23.547,,6090,-7210,159390
16:19:23.557,,4830,-6230,172690
16:19:23.567,,5110,-6300,185360
16:19:23.577,,6860,-6510,197330
16:19:23.587,,6650,-7140,216580
16:19:23.597,,3500,-8820,222670
16:19:23.607,,-2310,-10640,225890
16:19:23.617,,-10430,-12810,228130
16:19:23.627,,-18760,-16590,231910
16:19:23.637,,-26110,-21140,236110
16:19:23.647,,-30940,-25060,239890
16:19:23.657,,-33040,-28070,243670
16:19:23.667,,-31570,-29960,247940
16:19:23.677,,-30590,-30240,251790
16:19:23.687,,-30730,-29470,253680
16:19:23.697,,-29960,-28280,254870
16:19:23.707,,-29260,-26880,268590
16:19:23.717,,-35840,-26670,275450
16:19:23.727,,-38010,-31640,280490
16:19:23.737,,-37590,-32270,282030
16:19:23.747,,-37520,-29400,279650
16:19:23.757,,-39480,-26810,276290
16:19:23.767,,-40740,-23380,273840
16:19:23.777,,-36820,-18340,274260
16:19:23.787,,-33670,-15960,277760
16:19:23.797,,-35280,-15750,283990
16:19:23.807,,-35280,-10290,289660
16:19:23.817,,-34510,-840,294210
16:19:23.827,,-29610,6440,296800
16:19:23.837,,-21490,8260,293650
16:19:23.847,,-12600,8260,291060
16:19:23.857,,-17990,9450,291760
16:19:23.867,,-22400,13230,293020
16:19:23.877,,-20230,17080,291830
16:19:23.887,,-11620,20160,286370
16:19:23.897,,-3220,21560,277340
16:19:23.907,,-1820,23310,265720
16:19:23.917,,-3430,27790,253050
16:19:23.927,,-3150,31640,240240
16:19:23.937,,1260,31500,227360
16:19:23.947,,7490,29190,215740
16:19:23.957,,13650,26110,204330
16:19:23.967,,21210,19460,172410
16:19:23.977,,43540,14140,152670
16:19:23.987,,51170,10150,130410
16:19:23.997,,53060,8680,105910
16:19:24.007,,50540,8400,79590
16:19:24.017,,45640,7630,51660
16:19:24.027,,39480,6370,22330
16:19:24.037,,31570,4340,-7630
16:19:24.047,,23450,1260,-37240
16:19:24.057,,17780,-3640,-65660
16:19:24.067,,16520,-9800,-91840
16:19:24.077,,21420,-17990,-117320
16:19:24.087,,30800,-27650,-140840
16:19:24.097,,42490,-49210,-179480
16:19:24.107,,51100,-60900,-200270
16:19:24.117,,47670,-66710,-216720
16:19:24.127,,40040,-69580,-233380
16:19:24.137,,28840,-72240,-247170
16:19:24.147,,17010,-74970,-259490
16:19:24.157,,5670,-75110,-272790
16:19:24.167,,-2730,-72870,-285880
16:19:24.177,,-4690,-68250,-297990
16:19:24.187,,-1750,-62790,-308910
16:19:24.197,,770,-59010,-317940
16:19:24.207,,-280,-57330,-323190
16:19:24.217,,-6440,-56210,-324940
16:19:24.227,,-31360,-56070,-323960
16:19:24.237,,-43190,-56070,-323960
16:19:24.247,,-50330,-54110,-323960
16:19:24.257,,-47530,-48160,-324660
16:19:24.267,,-33250,-39620,-323540
16:19:24.277,,-13230,-31920,-320320
16:19:24.287,,5110,-28700,-315560
16:19:24.297,,15960,-27790,-310730
16:19:24.307,,15610,-25760,-307300
16:19:24.317,,4830,-22540,-305410
16:19:24.327,,-13510,-16660,-304570
16:19:24.337,,-30380,-9730,-303030
16:19:24.460,,-3150,23590,-182210
16:19:24.462,,-3150,23590,-182210
16:19:24.463,,-3150,23590,-182210
16:19:24.465,,-3150,23590,-182210
16:19:24.466,,-3150,23590,-182210
16:19:24.467,,-3150,23590,-182210
16:19:24.469,,-5950,21210,-168280
16:19:24.470,,-5950,21210,-168280
16:19:24.471,,-5950,21210,-168280
16:19:24.473,,-5950,21210,-168280
16:19:24.474,,-5950,21210,-168280
16:19:24.476,,-5950,21210,-168280
16:19:24.477,,-5950,20790,-157150
16:19:24.478,,-10920,20790,-157150
16:19:24.487,,-12600,23660,-147420
16:19:24.497,,-6370,28560,-137410
16:19:24.507,,8330,31220,-125090
16:19:24.517,,23520,29960,-110600
16:19:24.527,,33530,25480,-95060
16:19:24.537,,32760,18620,-76510
16:19:24.547,,24570,8330,-55090
16:19:24.557,,13510,-2170,-33810
16:19:24.567,,2100,-9800,-13300
16:19:24.577,,-5950,-13440,6930
16:19:24.587,,-9730,-14210,26530
16:19:24.597,,-9170,-13090,45430
16:19:24.607,,-4900,-6650,84210
16:19:24.617,,8540,-3290,104160
16:19:24.627,,13090,-910,123200
16:19:24.637,,12600,1190,140210
16:19:24.647,,7910,4060,156100
16:19:24.657,,2800,6580,170590
16:19:24.667,,-2100,8680,183120
16:19:24.677,,-8470,9590,194460
16:19:24.687,,-12950,8190,204400
16:19:24.697,,-12810,5180,211890
16:19:24.707,,-9660,2520,216020
16:19:24.717,,-7280,1890,219800
16:19:24.727,,-6300,560,225330
16:19:24.737,,-16590,-3010,235130
16:19:24.747,,-19670,-5740,234150
16:19:24.757,,-21420,-8750,237020
16:19:24.767,,-29960,-11270,240100
16:19:24.777,,-39340,-12810,243390
16:19:24.787,,-41090,-14420,243040
16:19:24.797,,-35140,-16520,243250
16:19:24.807,,-27300,-15820,249970
16:19:24.817,,-26040,-14000,261170
16:19:24.827,,-30800,-12040,272300
16:19:24.837,,-26320,-11970,276150
16:19:24.847,,-16170,-13650,273910
16:19:24.857,,-11760,-11830,270060
16:19:24.867,,-17780,-11550,264950
16:19:24.877,,-17780,-12810,263060
16:19:24.887,,-16800,-11340,260540
16:19:24.897,,-19180,-9870,261030
16:19:24.907,,-24430,-10220,264600
16:19:24.917,,-27650,-8400,267540
16:19:24.927,,-25550,-4760,268870
16:19:24.937,,-18900,-1960,269780
16:19:24.947,,-12530,-1680,271040
16:19:24.957,,-9940,-2310,271460
16:19:24.967,,-8610,-1890,269850
16:19:24.977,,-7700,-840,266980
16:19:24.987,,-9520,-210,264320
16:19:24.997,,-14000,1960,257250
16:19:25.007,,-13650,2660,249830
16:19:25.017,,-12390,2520,240590
16:19:25.027,,-7490,3220,227290
16:19:25.037,,3290,6090,209230
16:19:25.047,,18550,10570,185570
16:19:25.057,,35560,15960,154910
16:19:25.067,,47530,19950,120890
16:19:25.077,,49700,21280,89810
16:19:25.087,,42140,21210,63000
16:19:25.097,,29680,20370,38570
16:19:25.107,,18060,18690,14000
16:19:25.117,,8260,15330,-10150
16:19:25.127,,9730,-280,-58240
16:19:25.137,,15960,-7420,-79380
16:19:25.147,,18340,-13300,-95480
16:19:25.157,,16940,-17990,-112980
16:19:25.167,,30170,-24430,-140000
16:19:25.177,,31990,-24640,-157780
16:19:25.187,,25060,-20510,-172130
16:19:25.197,,14420,-17710,-183610
16:19:25.207,,4270,-18760,-192570
16:19:25.217,,-2660,-20720,-201390
16:19:25.227,,-5320,-21980,-210980
16:19:25.237,,-1750,-23450,-222110
16:19:25.247,,6860,-25900,-247590
16:19:25.257,,19880,-31430,-259700
16:19:25.267,,20510,-32970,-270200
16:19:25.277,,17360,-32480,-278740
16:19:25.287,,10080,-28910,-285040
16:19:25.297,,5460,-24640,-294210
16:19:25.307,,1190,-22050,-300580
16:19:25.317,,-5880,-19810,-304220
16:19:25.327,,-14280,-16450,-306670
16:19:25.337,,-17290,-14490,-312130
16:19:25.347,,-13440,-12110,-317240
16:19:25.357,,-2730,-7910,-320880
16:19:25.367,,10850,-2730,-319060
16:19:25.377,,24710,9450,-300020
16:19:25.387,,27720,17220,-287140
16:19:25.397,,19880,20580,-274890
16:19:25.407,,6300,24010,-265580
16:19:25.417,,-7210,31080,-261170
16:19:25.427,,-11760,39550,-259910
16:19:25.437,,-4480,43960,-259630
16:19:25.447,,6720,44590,-258720
16:19:25.457,,10360,43960,-256480
16:19:25.467,,4340,41650,-252700
16:19:25.477,,-5600,36750,-246820
16:19:25.487,,-16590,31010,-240240
16:19:25.497,,-26460,28210,-233240
16:19:25.507,,-34230,39760,-222040
16:19:25.517,,-28350,45920,-215460
16:19:25.527,,-20510,49140,-206710
16:19:25.537,,-16730,50330,-196490
16:19:25.547,,-12390,49980,-184100
16:19:25.665,,4760,-11830,39200
16:19:25.667,,4760,-11830,39200
16:19:25.668,,4760,-11830,39200
16:19:25.669,,4760,-11830,39200
16:19:25.671,,4760,-11830,39200
16:19:25.672,,4760,-11830,39200
16:19:25.673,,4760,-12040,58730
16:19:25.675,,6160,-12040,58730
16:19:25.676,,6160,-12040,58730
16:19:25.678,,6160,-12040,58730
16:19:25.679,,6160,-12040,58730
16:19:25.680,,6160,-12040,58730
16:19:25.682,,6160,-12040,58730
16:19:25.687,,9100,-10780,76650
16:19:25.697,,12600,-9030,94290
16:19:25.707,,13090,-7070,111650
16:19:25.717,,9030,-7000,128240
16:19:25.727,,3570,-9030,142310
16:19:25.737,,210,-10990,155120
16:19:25.747,,630,-11620,167790
16:19:25.757,,1470,-10710,181020
16:19:25.767,,560,-10850,207620
16:19:25.777,,-2240,-13650,219240
16:19:25.787,,-3920,-17570,229250
16:19:25.797,,-5740,-20790,237930
16:19:25.807,,-7420,-22820,241360
16:19:25.817,,-6370,-22400,242130
16:19:25.827,,-3150,-19670,245980
16:19:25.837,,-5110,-16450,250740
16:19:25.847,,-8820,-15260,254940
16:19:25.857,,-8470,-16660,257460
16:19:25.867,,-8540,-16380,258090
16:19:25.877,,-10360,-14910,258860
16:19:25.887,,-13930,-15540,264110
16:19:25.897,,-27020,-19460,265580
16:19:25.907,,-21980,-22470,263550
16:19:25.917,,-12810,-22820,259490
16:19:25.927,,-11690,-18830,256480
16:19:25.937,,-14350,-12320,254800
16:19:25.947,,-16310,-7210,255150
16:19:25.957,,-22120,-1750,261870
16:19:25.967,,-33250,4900,274820
16:19:25.977,,-45430,10780,289170
16:19:25.987,,-52990,14770,297430
16:19:25.997,,-49490,16310,298130
16:19:26.007,,-36190,15400,293440
16:19:26.017,,-22820,7910,283430
16:19:26.027,,-32340,4340,279300
16:19:26.037,,-48790,2590,274260
16:19:26.047,,-60830,2030,267820
16:19:26.057,,-64470,3220,259910
16:19:26.067,,-59920,6510,251720
16:19:26.077,,-51100,10640,242410
16:19:26.087,,-40180,13790,233800
16:19:26.097,,-27370,16730,224840
16:19:26.107,,-13230,17710,214760
16:19:26.117,,2520,15190,204820
16:19:26.127,,12040,12600,194110
16:19:26.137,,12530,11620,182210
16:19:26.147,,9450,10990,155330
16:19:26.157,,8890,10570,138040
16:19:26.167,,7490,10850,115360
16:19:26.177,,4060,10710,88340
16:19:26.187,,-1680,10360,60340
16:19:26.197,,-7910,10360,32690
16:19:26.207,,-14840,9940,8330
16:19:26.217,,-22960,9240,-15540
16:19:26.227,,-17010,5600,-41440
16:19:26.237,,-13580,4690,-57610
16:19:26.247,,-12320,5530,-71470
16:19:26.257,,-8260,2170,-81830
16:19:26.267,,-70,-3080,-91000
16:19:26.277,,22680,-14210,-115500
16:19:26.287,,32550,-19600,-128800
16:19:26.297,,37240,-23870,-142730
16:19:26.307,,35070,-27020,-157360
16:19:26.317,,28700,-28140,-171920
16:19:26.327,,21140,-28350,-187180
16:19:26.337,,15330,-28840,-203910
16:19:26.347,,10990,-29890,-218050
16:19:26.357,,8190,-30800,-228760
16:19:26.367,,8610,-32830,-237230
16:19:26.377,,11270,-36680,-247030
16:19:26.387,,14980,-41930,-258160
16:19:26.397,,17080,-46830,-260540
16:19:26.407,,4620,-38780,-272650
16:19:26.417,,490,-38570,-272510
16:19:26.427,,-6440,-33390,-274120
16:19:26.437,,-17500,-24850,-278250
16:19:26.447,,-21210,-21840,-281470
16:19:26.457,,-20020,-20580,-283990
16:19:26.467,,-14840,-19810,-290570
16:19:26.477,,-8190,-18060,-295330
16:19:26.487,,0,-14980,-296240
16:19:26.497,,9660,-11130,-293580
16:19:26.507,,17430,-6370,-290920
16:19:26.517,,19390,-490,-289170
16:19:26.527,,16310,5250,-287350
16:19:26.537,,4970,15050,-285600
16:19:26.547,,1890,19040,-284060
16:19:26.557,,2520,21700,-281890
16:19:26.567,,8330,21910,-278320
16:19:26.577,,18200,21490,-272160
16:19:26.587,,30870,22680,-265930
16:19:26.597,,38360,25480,-259210
16:19:26.607,,37170,27370,-250180
16:19:26.617,,30100,27930,-239120
16:19:26.627,,17990,30170,-230790
16:19:26.637,,4060,34510,-221130
16:19:26.646,,-6440,38990,-213220
16:19:26.657,,-12250,43260,-205380
16:19:26.667,,-2240,49350,-199570
16:19:26.676,,8960,49350,-191940
16:19:26.687,,15680,46900,-183400
16:19:26.697,,15960,42000,-173600
16:19:26.706,,12460,36260,-162400
16:19:26.717,,7280,30380,-150570
16:19:26.727,,2940,24290,-138950
16:19:26.736,,2940,19250,-127260
16:19:26.747,,6650,15610,-115150
16:19:26.757,,12390,13160,-101220
16:19:26.766,,16660,13300,-82180
16:19:26.777,,17920,16310,-60550
16:19:26.900,,-2940,-4200,164220
16:19:26.902,,-2940,-4200,164220
16:19:26.903,,-2940,-4200,164220
16:19:26.904,,-2940,-4200,164220
16:19:26.906,,-2940,-4200,164220
16:19:26.907,,-2940,-7350,170100
16:19:26.908,,-8400,-7350,170100
16:19:26.910,,-8400,-7350,170100
16:19:26.911,,-8400,-7350,170100
16:19:26.913,,-8400,-7350,170100
16:19:26.914,,-8400,-7350,170100
16:19:26.915,,-8400,-7350,170100
16:19:26.917,,-9660,-12670,176890
16:19:26.918,,-9660,-12670,176890
16:19:26.926,,-17290,-14420,183610
16:19:26.936,,-30520,-14140,190260
16:19:26.946,,-36820,-16660,199500
16:19:26.956,,-30520,-20440,209020
16:19:26.966,,-19740,-22400,214550
16:19:26.976,,-10710,-23170,216580
16:19:26.986,,-5880,-21980,218400
16:19:26.996,,-3430,-20930,222950
16:19:27.006,,-5600,-20230,228270
16:19:27.016,,-11060,-19040,231700
16:19:27.026,,-15820,-17780,234500
16:19:27.036,,-18760,-17360,237160
16:19:27.046,,-27720,-17990,238490
16:19:27.056,,-22610,-22610,238070
16:19:27.066,,-20300,-24150,238210
16:19:27.076,,-23730,-22750,239610
16:19:27.086,,-26040,-23100,243740
16:19:27.096,,-27510,-22610,249130
16:19:27.106,,-30870,-19530,253400
16:19:27.116,,-33320,-14840,257530
16:19:27.126,,-30870,-10150,261170
16:19:27.136,,-24990,-8400,264250
16:19:27.146,,-20020,-9730,267400
16:19:27.156,,-18130,-10850,268520
16:19:27.166,,-17360,-9520,266840
16:19:27.176,,-14770,-5810,261030
16:19:27.186,,-16940,-5040,259980
16:19:27.196,,-22260,-4060,259980
16:19:27.206,,-26740,-1190,259070
16:19:27.216,,-29750,1470,256130
16:19:27.226,,-27720,2730,251790
16:19:27.236,,-25550,4410,244020
16:19:27.246,,-24780,5530,234290
16:19:27.256,,-24500,5670,224490
16:19:27.266,,-25410,6440,214410
16:19:27.276,,-25550,8470,204540
16:19:27.286,,-23730,9800,193900
16:19:27.296,,-21280,9940,172970
16:19:27.306,,-14770,10710,163450
16:19:27.316,,-11830,11900,152320
16:19:27.326,,-9030,13370,137340
16:19:27.336,,-7560,15610,117250
16:19:27.346,,-5810,19250,93310
16:19:27.356,,-3710,21910,67970
16:19:27.366,,-3710,21910,47180
16:19:27.376,,-2100,18970,22960
16:19:27.386,,5530,14980,490
16:19:27.396,,8680,14560,-14140
16:19:27.406,,11970,13020,-30590
16:19:27.416,,17920,7700,-47180
16:19:27.426,,24990,-1960,-85050
16:19:27.436,,34230,-5810,-104440
16:19:27.446,,31220,-8820,-124040
16:19:27.456,,26040,-11970,-142590
16:19:27.466,,21700,-15190,-160300
16:19:27.476,,19810,-18620,-175980
16:19:27.486,,18830,-21700,-187320
16:19:27.496,,20230,-24570,-194880
16:19:27.506,,23100,-27020,-201460
16:19:27.516,,25620,-29190,-208390
16:19:27.526,,26810,-30380,-217140
16:19:27.536,,27370,-30240,-228900
16:19:27.546,,27790,-30660,-238070
16:19:27.556,,19950,-30030,-248920
16:19:27.566,,13720,-31290,-256690
16:19:27.576,,11200,-33040,-259630
16:19:27.586,,3500,-29750,-269990
16:19:27.596,,-7210,-27510,-277760
16:19:27.606,,-17430,-23030,-281890
16:19:27.616,,-20090,-14350,-293160
16:19:27.626,,-11970,-6090,-301910
16:19:27.636,,2940,1190,-301490
16:19:27.646,,18270,6930,-298620
16:19:27.656,,31570,11130,-294350
16:19:27.666,,42840,13160,-285600
16:19:27.676,,49700,13720,-275590
16:19:27.686,,50400,9030,-261310
16:19:27.696,,43400,4970,-259420
16:19:27.706,,32690,2240,-261170
16:19:27.716,,24850,980,-263760
16:19:27.726,,19810,2590,-265790
16:19:27.736,,14280,8260,-265090
16:19:27.746,,9940,15890,-262640
16:19:27.756,,6230,23240,-262500
16:19:27.766,,-70,27370,-260260
16:19:27.776,,-7490,27440,-257810
16:19:27.786,,-12250,25900,-252700
16:19:27.796,,-10640,24080,-243670
16:19:27.806,,-2660,21840,-229390
16:19:27.816,,11200,14770,-198170
16:19:27.826,,8050,12740,-186410
16:19:27.836,,560,14210,-175560
16:19:27.846,,-5600,18480,-164150
16:19:27.856,,-7000,22820,-152320
16:19:27.866,,-2380,24640,-140140
16:19:27.876,,6510,23660,-126070
16:19:27.886,,16590,20650,-110670
16:19:27.896,,24150,16170,-95480
16:19:27.906,,26600,10990,-80290
16:19:27.916,,23380,6020,-64540
16:19:27.926,,16310,1890,-47040
16:19:27.936,,6930,-910,-28490
16:19:27.946,,-6440,-1820,7770
16:19:27.956,,-10080,-2940,27300
16:19:27.966,,-12040,-3920,46130
16:19:27.976,,-9240,-4410,62300
16:19:27.986,,-5880,-3290,77560
16:19:28.086,,-7070,-10570,225680
16:19:28.087,,-7070,-10570,225680
16:19:28.088,,-7070,-10570,225680
16:19:28.090,,-7070,-10570,225680
16:19:28.091,,-7070,-10570,225680
16:19:28.093,,-7070,-10570,225680
16:19:28.094,,-7070,-10570,225680
16:19:28.095,,-9310,-9520,233450
16:19:28.097,,-9310,-9520,233450
16:19:28.098,,-9310,-9520,233450
16:19:28.099,,-9310,-9520,233450
16:19:28.106,,-13300,-9450,238630
16:19:28.116,,-15960,-12740,244090
16:19:28.126,,-15470,-15540,249550
16:19:28.136,,-16870,-13370,255010
16:19:28.146,,-20090,-9170,260890
16:19:28.156,,-19530,-6930,267540
16:19:28.166,,-15050,-4830,272440
16:19:28.176,,-10500,-2870,274400
16:19:28.186,,-5460,-1750,274750
16:19:28.196,,-5810,1470,272160
16:19:28.206,,-15960,1470,273000
16:19:28.216,,-22750,3640,275870
16:19:28.226,,-29050,7000,279860
16:19:28.236,,-31430,7000,282800
16:19:28.246,,-29190,5250,281820
16:19:28.256,,-24150,5040,278040
16:19:28.266,,-17570,9030,272090
16:19:28.276,,-10570,16800,264740
16:19:28.286,,-5390,23520,259070
16:19:28.296,,-8890,28070,256760
16:19:28.306,,-20720,33880,257320
16:19:28.316,,-32760,39760,258580
16:19:28.326,,-39060,44870,258160
16:19:28.336,,-31990,46620,257740
16:19:28.346,,-18480,47670,258020
16:19:28.356,,-4480,46970,256270
16:19:28.366,,2240,45640,252140
16:19:28.376,,2380,44520,247100
16:19:28.386,,-2590,44380,241710
16:19:28.396,,-13300,46060,234500
16:19:28.406,,-25270,47950,225820
16:19:28.416,,-32480,48860,217560
16:19:28.426,,-36890,49420,211540
16:19:28.436,,-37520,49280,205870
16:19:28.446,,-33040,49070,197890
16:19:28.456,,-15120,46830,175210
16:19:28.466,,-5740,44520,156380
16:19:28.476,,-280,39760,133140
16:19:28.486,,980,33320,107520
16:19:28.496,,-3850,26110,81830
16:19:28.506,,3920,16170,47950
16:19:28.516,,11690,7840,19250
16:19:28.526,,9240,5040,-5740
16:19:28.536,,1120,2730,-28630
16:19:28.546,,-8610,-1470,-47040
16:19:28.556,,-14630,-5250,-64820
16:19:28.566,,-13580,-9380,-84280
16:19:28.576,,-6020,-16730,-102760
16:19:28.586,,23940,-33950,-143500
16:19:28.596,,37800,-41720,-164570
16:19:28.606,,48370,-49140,-183680
16:19:28.616,,53270,-54110,-200690
16:19:28.626,,51520,-56700,-215180
16:19:28.636,,44520,-58450,-226170
16:19:28.646,,32550,-59010,-233870
16:19:28.656,,18480,-58730,-239050
16:19:28.666,,7420,-57750,-243250
16:19:28.676,,4690,-56140,-247310
16:19:28.686,,10570,-53970,-254660
16:19:28.696,,21420,-52780,-259560
16:19:28.706,,29260,-50260,-271950
16:19:28.716,,24990,-41230,-278040
16:19:28.726,,14840,-38080,-290360
16:19:28.736,,-2100,-33950,-298340
16:19:28.746,,-16940,-28420,-305480
16:19:28.756,,-19740,-23240,-310800
16:19:28.766,,-8680,-18620,-315000
16:19:28.776,,9030,-15260,-315420
16:19:28.786,,25340,-11620,-313320
16:19:28.796,,42210,-10640,-311220
16:19:28.806,,57820,-13160,-307300
16:19:28.816,,65170,-16170,-303800
16:19:28.826,,62090,-17710,-301420
16:19:28.836,,52290,-10290,-294770
16:19:28.846,,34230,-3570,-288190
16:19:28.856,,40810,2380,-282380
16:19:28.866,,55230,6580,-278390
16:19:28.876,,68530,8680,-274190
16:19:28.886,,71610,8120,-272090
16:19:28.896,,61460,6160,-272580
16:19:28.906,,42980,3990,-273560
16:19:28.916,,25410,2100,-273980
16:19:28.926,,15890,2450,-275800
16:19:28.936,,18900,3920,-276710
16:19:28.946,,32340,5460,-275240
16:19:28.956,,47040,6230,-269990
16:19:28.966,,48720,6720,-251510
16:19:28.976,,29330,9030,-238140
16:19:28.986,,6580,12180,-220640
16:19:28.996,,-6160,15190,-199640
16:19:29.006,,-7070,17710,-177520
16:19:29.016,,-1540,18620,-156520
16:19:29.026,,6370,17290,-135030
16:19:29.036,,14560,14490,-111860
16:19:29.046,,20300,10290,-86380
16:19:29.056,,20230,5600,-59290
16:19:29.066,,13790,700,-33180
16:19:29.076,,4200,-3220,-9170
16:19:29.086,,-4690,-4480,13720
16:19:29.096,,-14350,-8330,61670
16:19:29.106,,-12950,-9450,85050
16:19:29.116,,-8400,-8960,106260
16:19:29.126,,-4620,-8750,125300
16:19:29.136,,-5320,-8820,141820
16:19:29.146,,-9310,-8330,155960
16:19:29.156,,-14700,-7980,167510
16:19:29.166,,-18480,-8190,177940
16:19:29.176,,-20790,-8820,188930
16:19:29.186,,-24920,-11410,200620
16:19:29.196,,-30240,-15050,214200
16:19:29.206,,-33460,-19110,225890
16:19:29.332,,-33390,-29680,323610
16:19:29.333,,-33390,-29680,323610
16:19:29.335,,-33390,-29680,323610
16:19:29.336,,-33390,-29680,323610
16:19:29.338,,-37520,-25970,324170
16:19:29.339,,-37520,-25970,324170
16:19:29.340,,-37520,-25970,324170
16:19:29.342,,-37520,-25970,324170
16:19:29.343,,-37520,-25970,324170
16:19:29.344,,-37520,-25970,324170
16:19:29.346,,-37520,-25970,324170
16:19:29.347,,-42630,-24570,325570
16:19:29.349,,-42630,-24570,325570
16:19:29.350,,-42630,-24570,325570
16:19:29.356,,-44940,-23030,328370
16:19:29.366,,-49350,-16450,328790
16:19:29.376,,-50820,-8680,326760
16:19:29.386,,-46130,-4620,325850
16:19:29.396,,-39900,-2520,325430
16:19:29.406,,-38570,-420,324590
16:19:29.416,,-42560,1540,324240
16:19:29.426,,-44310,3290,323680
16:19:29.436,,-39200,4130,320740
16:19:29.446,,-26740,7280,313950
16:19:29.456,,-11620,11550,306110
16:19:29.466,,-2030,14070,299740
16:19:29.476,,1260,16870,280840
16:19:29.486,,1540,25970,264390
16:19:29.496,,3570,29960,244510
16:19:29.506,,7140,32270,223440
16:19:29.516,,9100,33180,203840
16:19:29.526,,11340,31290,186130
16:19:29.536,,8260,29120,169120
16:19:29.546,,-980,29330,152110
16:19:29.556,,-8820,31220,132720
16:19:29.566,,-12880,33810,111790
16:19:29.576,,-14280,38220,90720
16:19:29.586,,-13860,43330,70280
16:19:29.596,,-11410,45920,51590
