Sensors' Acquisition [Hz]: Acc@104.0 
hh:mm:ss.ms, Annotation , AccX [mg], AccY, AccZ
17:18:22.341,,959,325,167
17:18:22.351,,954,335,157
17:18:22.361,,934,344,152
17:18:22.371,,931,348,165
17:18:22.381,,934,346,171
17:18:22.391,,916,340,175
17:18:22.401,,900,324,196
17:18:22.411,,887,304,226
17:18:22.421,,877,289,282
17:18:22.431,>Stationary,,,
17:18:22.432,,876,284,301
17:18:22.441,,883,283,315
17:18:22.452,,910,296,311
17:18:22.461,,918,314,296
17:18:22.472,,905,319,272
17:18:22.481,,906,348,248
17:18:22.492,,887,372,225
17:18:22.501,,872,388,216
17:18:22.512,,871,394,213
17:18:22.521,,861,389,216
17:18:22.531,,859,386,215
17:18:22.541,,873,377,200
17:18:22.551,,933,396,185
17:18:22.561,,960,397,154
17:18:22.571,,960,397,122
17:18:22.581,,981,390,112
17:18:22.591,,995,391,79
17:18:22.601,,970,385,135
17:18:22.611,,922,384,138
17:18:22.621,,916,383,151
17:18:22.631,,886,399,175
17:18:22.641,,880,390,204
17:18:22.651,,889,377,226
17:18:22.661,,900,365,243
17:18:22.671,,905,354,258
17:18:22.681,,919,344,261
17:18:22.691,,931,352,258
17:18:22.701,,933,362,247
17:18:22.711,,936,374,242
17:18:22.721,,939,391,235
17:18:22.731,,953,431,223
17:18:22.741,,938,476,208
17:18:22.751,,924,491,189
17:18:22.761,,894,486,210
17:18:22.771,,877,499,225
17:18:22.781,,874,508,231
17:18:22.791,,878,500,237
17:18:22.801,,867,489,241
17:18:22.811,,855,456,252
17:18:22.821,,851,439,265
17:18:22.831,,849,420,272
17:18:22.841,,850,399,282
17:18:22.851,,851,383,293
17:18:22.861,,857,375,303
17:18:22.871,,866,372,310
17:18:22.881,,861,372,305
17:18:22.891,,857,382,308
17:18:22.901,,842,387,304
17:18:22.911,,830,389,309
17:18:22.921,,826,395,316
17:18:22.931,,844,413,339
17:18:22.941,,879,415,333
17:18:22.951,,887,399,323
17:18:22.961,,888,390,328
17:18:22.971,,875,389,325
17:18:22.981,,850,396,330
17:18:22.991,,824,417,344
17:18:23.001,,819,432,340
17:18:23.011,,830,430,349
17:18:23.021,,872,427,346
17:18:23.031,,905,435,336
17:18:23.041,,921,446,343
17:18:23.051,,920,445,345
17:18:23.061,,894,439,353
17:18:23.071,,856,366,354
17:18:23.081,,852,322,356
17:18:23.091,,851,291,348
17:18:23.101,,845,252,343
17:18:23.111,,839,222,342
17:18:23.121,,832,218,344
17:18:23.131,,827,241,346
17:18:23.141,,824,273,343
17:18:23.151,,814,316,333
17:18:23.161,,802,351,335
17:18:23.171,,802,368,335
17:18:23.181,,819,376,323
17:18:23.191,,843,393,333
17:18:23.201,,882,389,331
17:18:23.211,,894,404,344
17:18:23.221,,896,413,377
17:18:23.231,,901,419,397
17:18:23.241,,889,424,404
17:18:23.251,,890,445,414
17:18:23.261,,882,463,426
17:18:23.271,,864,465,429
17:18:23.281,,850,448,421
17:18:23.291,,825,431,408
17:18:23.301,,810,416,416
17:18:23.311,,796,406,421
17:18:23.321,,779,397,418
17:18:23.331,,775,400,412
17:18:23.341,,764,404,401
17:18:23.351,,759,411,398
17:18:23.361,,772,397,393
17:18:23.371,,783,381,386
17:18:23.381,,790,372,385
17:18:23.391,,788,371,385
17:18:23.401,,791,358,378
17:18:23.411,,790,348,374
17:18:23.421,,782,338,375
17:18:23.431,,771,332,371
17:18:23.441,,770,332,368
17:18:23.451,,770,376,368
17:18:23.461,,766,401,370
17:18:23.471,,767,414,375
17:18:23.481,,775,427,376
17:18:23.491,,778,433,373
17:18:23.501,,781,439,366
17:18:23.511,,783,444,375
17:18:23.521,,788,455,391
17:18:23.531,,772,458,384
17:18:23.541,,780,480,383
17:18:23.551,,809,507,371
17:18:23.561,,830,540,365
17:18:23.571,,849,534,333
17:18:23.581,,940,518,260
17:18:23.591,,943,538,256
17:18:23.601,,934,576,253
17:18:23.611,,935,604,257
17:18:23.621,,920,611,242
17:18:23.631,,894,608,258
17:18:23.641,,860,573,296
17:18:23.651,,849,525,320
17:18:23.661,,850,480,333
17:18:23.671,,870,433,370
17:18:23.681,,892,403,396
17:18:23.691,,907,390,398
17:18:23.701,,905,389,378
17:18:23.711,,869,426,353
17:18:23.721,,838,433,330
17:18:23.731,,818,430,311
17:18:23.741,,811,427,276
17:18:23.751,,822,423,233
17:18:23.761,,843,403,186
17:18:23.771,,858,391,148
17:18:23.781,,856,381,132
17:18:23.791,,852,360,124
17:18:23.801,,850,359,114
17:18:23.811,,853,359,121
17:18:23.821,,856,361,143
17:18:23.831,,857,387,178
17:18:23.841,,839,399,198
17:18:23.851,,842,407,217
17:18:23.861,,879,408,232
17:18:23.871,,949,413,245
17:18:23.991,,832,572,154
17:18:23.993,,832,572,154
17:18:23.994,,832,572,154
17:18:23.995,,832,572,154
17:18:23.997,,832,572,154
17:18:23.998,,832,572,131
17:18:23.999,,826,566,131
17:18:24.001,,826,566,131
17:18:24.002,,826,566,131
17:18:24.003,,826,566,131
17:18:24.005,,826,566,131
17:18:24.006,,826,566,131
17:18:24.008,,826,565,110
17:18:24.011,,822,565,110
17:18:24.021,,822,556,100
17:18:24.031,,824,530,104
17:18:24.041,,822,498,123
17:18:24.051,,825,463,139
17:18:24.061,,836,437,152
17:18:24.071,,861,404,179
17:18:24.081,,899,368,174
17:18:24.091,,911,336,210
17:18:24.101,,910,333,214
17:18:24.111,,912,338,226
17:18:24.121,,914,340,239
17:18:24.131,,912,342,255
17:18:24.141,,908,351,262
17:18:24.151,,899,359,265
17:18:24.161,,888,357,263
17:18:24.171,,891,363,259
17:18:24.181,,877,380,268
17:18:24.191,,860,379,265
17:18:24.201,,847,379,237
17:18:24.211,,829,386,221
17:18:24.221,,805,415,206
17:18:24.231,,803,422,206
17:18:24.241,,811,430,208
17:18:24.251,,821,416,212
17:18:24.261,,856,357,214
17:18:24.271,,902,284,218
17:18:24.281,,945,223,220
17:18:24.291,,963,191,217
17:18:24.301,,971,179,223
17:18:24.311,,970,214,223
17:18:24.321,,950,269,220
17:18:24.331,,918,293,212
17:18:24.341,,893,291,179
17:18:24.351,,870,227,168
17:18:24.361,,864,174,171
17:18:24.371,,854,140,180
17:18:24.381,,869,148,224
17:18:24.391,,881,195,260
17:18:24.401,,883,236,281
17:18:24.411,,895,259,299
17:18:24.421,,918,281,309
17:18:24.431,,949,318,303
17:18:24.441,,971,348,282
17:18:24.451,,994,372,256
17:18:24.461,,1024,387,225
17:18:24.471,,1037,397,153
17:18:24.481,,1017,441,133
17:18:24.491,,1008,463,132
17:18:24.501,,995,475,148
17:18:24.511,,985,485,167
17:18:24.521,,956,508,181
17:18:24.531,,923,529,190
17:18:24.541,,898,544,208
17:18:24.551,,880,555,236
17:18:24.561,,855,553,242
17:18:24.571,,838,553,254
17:18:24.581,,830,567,269
17:18:24.591,,821,559,259
17:18:24.601,,815,562,226
17:18:24.611,,831,548,206
17:18:24.621,,835,523,179
17:18:24.631,,819,517,158
17:18:24.641,,797,507,151
17:18:24.651,,788,501,153
17:18:24.661,,793,497,149
17:18:24.671,,791,500,154
17:18:24.681,,790,515,168
17:18:24.691,,781,549,171
17:18:24.701,,767,579,182
17:18:24.711,,769,597,192
17:18:24.721,,764,609,198
17:18:24.731,,751,623,211
17:18:24.741,,739,626,212
17:18:24.751,,734,631,242
17:18:24.761,,723,636,237
17:18:24.771,,721,652,249
17:18:24.781,,723,679,245
17:18:24.791,,733,688,245
17:18:24.801,,731,691,228
17:18:24.811,,742,708,213
17:18:24.821,,749,723,201
17:18:24.831,,761,719,179
17:18:24.841,,776,722,150
17:18:24.851,,769,747,124
17:18:24.861,,781,751,100
17:18:24.871,,785,738,88
17:18:24.881,,798,729,85
17:18:24.891,,825,752,85
17:18:24.901,,848,762,65
17:18:24.911,,870,752,52
17:18:24.921,,910,744,62
17:18:24.931,,956,739,79
17:18:24.941,,1000,735,100
17:18:24.951,,1039,736,101
17:18:24.961,,1060,737,94
17:18:24.971,,1044,744,102
17:18:24.981,,1021,742,103
17:18:24.991,,956,713,101
17:18:25.001,,922,687,104
17:18:25.011,,883,655,110
17:18:25.021,,864,623,107
17:18:25.031,,853,602,109
17:18:25.041,,848,583,93
17:18:25.051,,895,561,142
17:18:25.061,,939,532,163
17:18:25.071,,986,499,153
17:18:25.081,,1020,486,159
17:18:25.091,,1050,471,160
17:18:25.101,,1068,453,147
17:18:25.111,,1064,445,109
17:18:25.121,,1021,426,88
17:18:25.131,,998,416,80
17:18:25.141,,974,395,86
17:18:25.151,,971,370,97
17:18:25.161,,970,354,115
17:18:25.171,,962,345,140
17:18:25.181,,957,338,162
17:18:25.191,,961,335,175
17:18:25.201,,963,337,185
17:18:25.211,,961,338,188
17:18:25.221,,948,340,178
17:18:25.231,,931,340,160
17:18:25.241,,910,329,116
17:18:25.251,,867,318,99
17:18:25.261,,854,303,76
17:18:25.271,,835,289,63
17:18:25.281,,813,281,51
17:18:25.291,,794,272,45
17:18:25.301,,775,268,45
17:18:25.311,,760,266,51
17:18:25.321,,755,256,64
17:18:25.331,,756,256,79
17:18:25.341,,758,260,97
17:18:25.351,,759,269,117
17:18:25.361,,764,276,143
17:18:25.371,,789,287,189
17:18:25.381,,802,288,204
17:18:25.391,,801,296,175
17:18:25.401,,827,295,268
17:18:25.411,,816,308,244
17:18:25.421,,835,342,269
17:18:25.431,,840,381,284
17:18:25.441,,838,423,296
17:18:25.451,,824,445,298
17:18:25.577,,872,602,292
17:18:25.578,,872,602,292
17:18:25.580,,872,602,292
17:18:25.581,,872,602,292
17:18:25.582,,872,602,292
17:18:25.584,,872,602,292
17:18:25.585,,884,597,303
17:18:25.586,,884,597,303
17:18:25.588,,884,597,303
17:18:25.589,,884,597,303
17:18:25.591,,884,597,303
17:18:25.592,,884,597,303
17:18:25.593,,884,597,315
17:18:25.595,,912,611,315
17:18:25.601,,912,611,315
17:18:25.611,,931,618,314
17:18:25.621,,961,620,301
17:18:25.631,,971,641,251
17:18:25.641,,962,657,218
17:18:25.651,,948,680,182
17:18:25.661,,931,706,153
17:18:25.671,,913,724,140
17:18:25.681,,904,730,142
17:18:25.691,,900,725,157
17:18:25.701,,899,718,176
17:18:25.711,,898,719,184
17:18:25.721,,889,718,193
17:18:25.731,,869,715,193
17:18:25.741,,839,720,190
17:18:25.751,,801,731,159
17:18:25.761,,726,763,148
17:18:25.771,,704,748,138
17:18:25.781,,710,724,143
17:18:25.791,,720,692,141
17:18:25.801,,740,667,145
17:18:25.811,,778,649,154
17:18:25.821,,809,633,158
17:18:25.831,,840,622,167
17:18:25.841,,862,626,175
17:18:25.851,,864,648,183
17:18:25.861,,852,660,191
17:18:25.871,,834,658,215
17:18:25.881,,795,644,229
17:18:25.891,,723,638,231
17:18:25.901,,716,638,271
17:18:25.911,,671,642,166
17:18:25.921,,686,662,214
17:18:25.931,,685,666,192
17:18:25.941,,692,668,192
17:18:25.951,,692,669,185
17:18:25.961,,703,667,187
17:18:25.971,,717,667,191
17:18:25.981,,731,671,192
17:18:25.991,,739,670,193
17:18:26.001,,753,662,196
17:18:26.011,,777,652,187
17:18:26.021,,787,658,195
17:18:26.031,,801,662,182
17:18:26.041,,805,667,171
17:18:26.051,,808,670,159
17:18:26.061,,819,671,151
17:18:26.071,,821,666,141
17:18:26.081,,806,686,145
17:18:26.091,,752,668,126
17:18:26.101,,774,707,129
17:18:26.111,,762,681,157
17:18:26.121,,784,674,163
17:18:26.131,,735,657,134
17:18:26.141,,780,694,161
17:18:26.151,,779,677,171
17:18:26.161,,792,687,143
17:18:26.171,,843,709,188
17:18:26.181,,841,700,191
17:18:26.191,,862,673,216
17:18:26.201,,924,689,212
17:18:26.211,,981,686,228
17:18:26.221,,1000,656,202
17:18:26.231,,1019,645,189
17:18:26.241,,1007,636,169
17:18:26.251,,987,642,172
17:18:26.261,,960,629,202
17:18:26.271,,941,605,215
17:18:26.281,,942,586,212
17:18:26.291,,940,573,226
17:18:26.301,,938,554,228
17:18:26.311,,927,531,242
17:18:26.321,,906,568,186
17:18:26.331,,871,539,205
17:18:26.341,,842,538,169
17:18:26.351,,811,534,171
17:18:26.361,,772,513,152
17:18:26.371,,750,494,174
17:18:26.381,,740,477,179
17:18:26.391,,752,453,219
17:18:26.401,,804,407,239
17:18:26.411,,837,393,253
17:18:26.421,,868,384,257
17:18:26.431,,886,376,261
17:18:26.441,,901,375,260
17:18:26.451,,904,380,251
17:18:26.461,,891,384,233
17:18:26.471,,882,383,222
17:18:26.481,,866,377,210
17:18:26.491,,846,375,200
17:18:26.501,,818,373,186
17:18:26.511,,784,371,177
17:18:26.521,,757,379,168
17:18:26.531,,721,395,161
17:18:26.541,,698,402,170
17:18:26.551,,688,415,151
17:18:26.561,,688,419,143
17:18:26.571,,695,418,144
17:18:26.581,,719,416,154
17:18:26.591,,729,426,149
17:18:26.601,,741,464,158
17:18:26.611,,749,489,145
17:18:26.621,,767,522,159
17:18:26.631,,772,541,169
17:18:26.641,,762,548,194
17:18:26.651,,746,585,246
17:18:26.661,,751,586,213
17:18:26.671,,724,598,244
17:18:26.681,,738,625,255
17:18:26.691,,735,613,272
17:18:26.701,,727,626,294
17:18:26.711,,730,628,284
17:18:26.721,,739,619,277
17:18:26.731,,747,611,274
17:18:26.741,,739,602,274
17:18:26.751,,751,597,279
17:18:26.761,,769,609,276
17:18:26.771,,768,621,278
17:18:26.781,,780,637,265
17:18:26.791,,769,642,254
17:18:26.801,,767,645,249
17:18:26.811,,779,642,255
17:18:26.821,,789,635,262
17:18:26.831,,804,639,272
17:18:26.841,,820,655,278
17:18:26.851,,833,664,279
17:18:26.861,,831,670,269
17:18:26.871,,816,677,260
17:18:26.881,,792,680,250
17:18:26.891,,765,680,246
17:18:26.901,,745,677,244
17:18:26.911,,751,672,252
17:18:26.921,,766,671,256
17:18:26.931,,788,669,258
17:18:26.941,,797,675,246
17:18:26.951,,790,689,228
17:18:26.961,,778,706,196
17:18:26.971,,749,715,164
17:18:26.981,,716,717,150
17:18:26.991,,687,725,137
17:18:27.001,,679,724,138
17:18:27.011,,689,706,152
17:18:27.021,,722,697,162
17:18:27.141,,642,705,266
17:18:27.142,,642,705,266
17:18:27.143,,624,696,256
17:18:27.145,,624,696,256
17:18:27.146,,624,696,256
17:18:27.147,,624,696,256
17:18:27.149,,624,696,256
17:18:27.150,,624,696,256
17:18:27.151,,624,696,256
17:18:27.153,,619,701,251
17:18:27.154,,619,701,251
17:18:27.156,,619,701,251
17:18:27.157,,619,701,251
17:18:27.161,,619,701,255
17:18:27.171,,631,668,260
17:18:27.181,,649,655,255
17:18:27.191,,657,652,259
17:18:27.201,,660,644,266
17:18:27.211,,672,634,271
17:18:27.221,,680,632,269
17:18:27.231,,684,633,263
17:18:27.241,,692,640,257
17:18:27.251,,702,640,248
17:18:27.261,,712,647,239
17:18:27.271,,722,654,222
17:18:27.281,,722,662,223
17:18:27.291,,733,695,192
17:18:27.301,,716,696,176
17:18:27.311,,708,694,186
17:18:27.321,,681,709,181
17:18:27.331,,687,730,189
17:18:27.341,,688,703,186
17:18:27.351,,672,713,169
17:18:27.361,,643,669,219
17:18:27.371,,707,696,228
17:18:27.381,,748,685,250
17:18:27.391,,767,668,289
17:18:27.401,,811,678,286
17:18:27.411,,861,687,289
17:18:27.421,,874,682,230
17:18:27.431,,888,702,221
17:18:27.441,,876,711,212
17:18:27.451,,848,710,201
17:18:27.461,,804,703,203
17:18:27.471,,777,693,211
17:18:27.481,,757,675,223
17:18:27.491,,730,647,232
17:18:27.501,,719,643,244
17:18:27.511,,723,659,260
17:18:27.521,,741,676,274
17:18:27.531,,770,683,300
17:18:27.541,,813,745,260
17:18:27.551,,876,768,285
17:18:27.561,,899,772,286
17:18:27.571,,911,777,273
17:18:27.581,,890,772,250
17:18:27.591,,859,752,231
17:18:27.601,,835,722,219
17:18:27.611,,808,690,217
17:18:27.621,,799,659,230
17:18:27.631,,795,633,246
17:18:27.641,,798,609,270
17:18:27.651,,815,587,296
17:18:27.661,,848,562,315
17:18:27.671,,869,544,326
17:18:27.681,,874,523,322
17:18:27.691,,869,509,311
17:18:27.701,,853,498,291
17:18:27.711,,829,483,269
17:18:27.721,,806,473,251
17:18:27.731,,778,457,238
17:18:27.741,,755,455,230
17:18:27.751,,732,449,220
17:18:27.761,,718,439,234
17:18:27.771,,701,435,225
17:18:27.781,,665,422,210
17:18:27.791,,676,477,218
17:18:27.801,,646,464,226
17:18:27.811,,649,459,222
17:18:27.821,,657,454,219
17:18:27.831,,648,428,207
17:18:27.841,,657,440,216
17:18:27.851,,661,453,232
17:18:27.861,,666,458,217
17:18:27.871,,669,478,227
17:18:27.881,,661,511,235
17:18:27.891,,656,542,220
17:18:27.901,,658,581,231
17:18:27.911,,659,604,248
17:18:27.921,,668,612,249
17:18:27.931,,665,615,244
17:18:27.941,,682,604,248
17:18:27.951,,671,598,258
17:18:27.961,,670,596,260
17:18:27.971,,672,612,270
17:18:27.981,,654,622,275
17:18:27.991,,650,634,282
17:18:28.001,,647,630,289
17:18:28.011,,657,630,286
17:18:28.021,,660,621,298
17:18:28.031,,681,616,317
17:18:28.041,,711,612,336
17:18:28.051,,752,608,344
17:18:28.061,,803,626,323
17:18:28.071,,826,645,285
17:18:28.081,,806,654,241
17:18:28.091,,782,663,207
17:18:28.101,,748,676,181
17:18:28.111,,739,681,190
17:18:28.121,,765,681,215
17:18:28.131,,791,675,247
17:18:28.141,,805,662,263
17:18:28.151,,820,649,284
17:18:28.161,,815,637,283
17:18:28.171,,796,628,293
17:18:28.181,,765,635,272
17:18:28.191,,672,671,256
17:18:28.201,,642,678,250
17:18:28.211,,634,680,250
17:18:28.221,,643,681,246
17:18:28.231,,675,672,245
17:18:28.241,,723,663,251
17:18:28.251,,774,655,257
17:18:28.261,,817,654,259
17:18:28.271,,848,660,261
17:18:28.281,,866,674,255
17:18:28.291,,874,685,265
17:18:28.301,,867,703,269
17:18:28.311,,835,723,268
17:18:28.321,,756,735,280
17:18:28.331,,718,738,284
17:18:28.341,,683,739,296
17:18:28.351,,651,727,310
17:18:28.361,,635,710,321
17:18:28.371,,621,699,332
17:18:28.381,,611,695,336
17:18:28.391,,609,695,339
17:18:28.401,,614,694,346
17:18:28.411,,617,695,348
17:18:28.421,,627,685,349
17:18:28.431,,653,664,356
17:18:28.441,,679,653,358
17:18:28.451,,691,665,345
17:18:28.461,,700,667,337
17:18:28.471,,716,664,329
17:18:28.481,,726,667,318
17:18:28.491,,734,681,303
17:18:28.501,,726,691,287
17:18:28.511,,728,679,278
17:18:28.521,,732,671,266
17:18:28.531,,723,670,268
17:18:28.541,,727,660,262
17:18:28.551,,722,646,253
17:18:28.561,,703,652,281
17:18:28.571,,694,685,283
17:18:28.581,,670,708,287
17:18:28.591,,666,700,283
17:18:28.601,,681,717,298
17:18:28.727,,878,652,203
17:18:28.728,,878,652,203
17:18:28.729,,886,623,190
17:18:28.731,,886,623,190
17:18:28.732,,886,623,190
17:18:28.734,,886,623,190
17:18:28.735,,886,623,190
17:18:28.736,,886,623,190
17:18:28.738,,886,623,162
17:18:28.739,,875,583,162
17:18:28.740,,875,583,162
17:18:28.742,,875,583,162
17:18:28.743,,875,583,162
17:18:28.744,,875,583,162
17:18:28.751,,882,562,160
17:18:28.761,,884,550,172
17:18:28.771,,887,545,190
17:18:28.781,,893,550,210
17:18:28.791,,887,575,228
17:18:28.801,,867,608,241
17:18:28.811,,849,640,242
17:18:28.821,,821,659,237
17:18:28.831,,763,651,213
17:18:28.841,,749,637,202
17:18:28.851,,748,623,196
17:18:28.861,,755,613,196
17:18:28.871,,774,602,212
17:18:28.881,,796,589,230
17:18:28.891,,821,579,252
17:18:28.901,,840,574,277
17:18:28.911,,846,569,300
17:18:28.921,,846,560,320
17:18:28.931,,844,555,328
17:18:28.941,,841,555,335
17:18:28.951,,811,538,303
17:18:28.961,,754,549,285
17:18:28.971,,736,527,268
17:18:28.981,,718,503,261
17:18:28.991,,693,475,249
17:18:29.001,,681,454,234
17:18:29.011,,677,434,224
17:18:29.021,,677,412,217
17:18:29.031,,684,395,212
17:18:29.041,,686,385,204
17:18:29.051,,698,384,202
17:18:29.061,,693,380,195
17:18:29.071,,693,375,190
17:18:29.081,,698,371,194
17:18:29.091,,702,375,200
17:18:29.101,,704,397,208
17:18:29.111,,707,425,222
17:18:29.121,,703,446,248
17:18:29.131,,704,463,268
17:18:29.141,,698,482,280
17:18:29.151,,696,486,284
17:18:29.161,,712,518,299
17:18:29.171,,701,516,298
17:18:29.181,,701,548,296
17:18:29.191,,704,566,287
17:18:29.201,,709,574,274
17:18:29.211,,704,590,294
17:18:29.221,,728,683,329
17:18:29.231,,737,713,383
17:18:29.241,,737,726,439
17:18:29.251,,734,695,496
17:18:29.261,,746,643,513
17:18:29.271,,763,605,497
17:18:29.281,,820,576,438
17:18:29.291,,884,563,350
17:18:29.301,,930,564,262
17:18:29.311,,956,587,181
17:18:29.321,,939,625,126
17:18:29.331,,896,649,93
17:18:29.341,,843,645,111
17:18:29.351,,812,614,148
17:18:29.361,,808,581,171
17:18:29.371,,793,573,188
17:18:29.381,,779,593,188
17:18:29.391,,756,629,195
17:18:29.401,,719,661,199
17:18:29.411,,706,674,211
17:18:29.421,,706,678,234
17:18:29.431,,710,680,260
17:18:29.441,,722,677,290
17:18:29.451,,742,674,319
17:18:29.461,,769,674,337
17:18:29.471,,793,675,350
17:18:29.481,,802,686,346
17:18:29.491,,795,692,336
17:18:29.501,,781,693,326
17:18:29.511,,771,695,325
17:18:29.521,,749,696,312
17:18:29.531,,727,691,308
17:18:29.541,,708,685,303
17:18:29.551,,700,681,313
17:18:29.561,,690,679,269
17:18:29.571,,691,679,276
17:18:29.581,,687,674,262
17:18:29.591,,678,677,252
17:18:29.601,,677,691,227
17:18:29.611,,681,700,213
17:18:29.621,,680,704,199
17:18:29.631,,682,699,185
17:18:29.641,,690,690,172
17:18:29.651,,705,683,158
17:18:29.661,,720,681,143
17:18:29.671,,739,677,134
17:18:29.681,,755,668,119
17:18:29.691,,756,666,108
17:18:29.701,,759,655,99
17:18:29.711,,764,646,91
17:18:29.721,,757,646,89
17:18:29.731,,742,660,104
17:18:29.741,,721,679,143
17:18:29.751,,707,679,151
17:18:29.761,,668,663,189
17:18:29.771,,646,658,211
17:18:29.781,,642,652,224
17:18:29.791,,639,652,247
17:18:29.801,,644,647,220
17:18:29.811,,677,669,250
17:18:29.821,,695,678,248
17:18:29.831,,729,689,270
17:18:29.841,,763,702,272
17:18:29.851,,815,714,314
17:18:29.861,,871,718,298
17:18:29.871,,901,728,312
17:18:29.881,,929,737,325
17:18:29.891,,941,732,338
17:18:29.901,,947,732,335
17:18:29.911,,927,716,331
17:18:29.921,,918,712,311
17:18:29.931,,892,693,305
17:18:29.941,,870,682,285
17:18:29.951,,832,667,264
17:18:29.961,,806,659,227
17:18:29.971,,773,640,197
17:18:29.981,,742,635,190
17:18:29.991,,716,615,192
17:18:30.001,,708,595,204
17:18:30.011,,719,587,235
17:18:30.021,,744,581,258
17:18:30.031,,782,569,278
17:18:30.041,,830,552,290
17:18:30.051,,875,542,284
17:18:30.061,,921,553,269
17:18:30.071,,953,577,256
17:18:30.081,,962,599,241
17:18:30.091,,945,624,232
17:18:30.101,,908,633,225
17:18:30.111,,873,610,234
17:18:30.121,,813,594,217
17:18:30.131,,782,580,215
17:18:30.141,,773,571,206
17:18:30.151,,762,549,191
17:18:30.161,,750,533,181
17:18:30.171,,738,521,176
17:18:30.289,,718,471,239
17:18:30.291,,718,471,239
17:18:30.292,,718,471,239
17:18:30.293,,718,471,239
17:18:30.295,,718,471,239
17:18:30.296,,719,491,247
17:18:30.297,,719,491,247
17:18:30.299,,719,491,247
17:18:30.300,,719,491,247
17:18:30.302,,719,491,247
17:18:30.303,,719,491,247
17:18:30.304,,719,491,247
17:18:30.306,,720,495,275
17:18:30.311,,720,495,275
17:18:30.321,,709,502,279
17:18:30.331,,701,515,297
17:18:30.341,,690,525,299
17:18:30.351,,686,534,296
17:18:30.361,,681,539,293
17:18:30.371,,679,544,280
17:18:30.381,,678,546,275
17:18:30.391,,673,548,269
17:18:30.401,,683,560,270
17:18:30.411,,683,573,277
17:18:30.421,,709,578,289
17:18:30.431,,733,590,289
17:18:30.441,,752,600,291
17:18:30.451,,773,614,292
17:18:30.461,,788,625,284
17:18:30.471,,807,638,283
17:18:30.481,,821,657,263
17:18:30.491,,826,672,252
17:18:30.501,,818,691,236
17:18:30.511,,802,698,230
17:18:30.521,,800,700,239
17:18:30.531,,803,698,237
17:18:30.541,,796,693,238
17:18:30.551,,779,692,237
17:18:30.561,,746,691,233
17:18:30.571,,707,689,229
17:18:30.581,,676,684,231
17:18:30.591,,645,667,238
17:18:30.601,,638,644,246
17:18:30.611,,653,624,260
17:18:30.621,,683,610,265
17:18:30.631,,751,607,263
17:18:30.641,,781,619,259
17:18:30.651,,801,627,258
17:18:30.661,,810,630,267
17:18:30.671,,808,635,279
17:18:30.681,,798,636,299
17:18:30.691,,780,633,316
17:18:30.701,,759,633,327
17:18:30.711,,735,641,332
17:18:30.720,,713,645,334
17:18:30.731,,700,651,336
17:18:30.741,,699,668,338
17:18:30.750,,674,682,323
17:18:30.761,,676,683,316
17:18:30.771,,677,685,307
17:18:30.780,,682,687,292
17:18:30.791,,683,688,285
17:18:30.801,,682,689,282
17:18:30.810,,685,688,280
17:18:30.821,,693,685,279
17:18:30.831,,698,684,274
17:18:30.840,,698,688,268
17:18:30.851,,704,699,260
17:18:30.860,,713,708,254
17:18:30.870,,709,704,245
17:18:30.881,,716,714,232
17:18:30.890,,724,721,231
17:18:30.900,,712,714,218
17:18:30.911,,717,716,218
17:18:30.920,,722,713,224
17:18:30.930,,724,713,229
17:18:30.941,,711,717,225
17:18:30.950,,698,708,229
17:18:30.960,,690,712,232
17:18:30.971,,675,718,231
17:18:30.980,,667,723,238
17:18:30.990,,658,736,244
17:18:31.000,,644,738,226
17:18:31.010,,643,755,228
17:18:31.020,,645,755,231
17:18:31.030,,660,759,233
17:18:31.040,,677,753,233
17:18:31.050,,699,744,239
17:18:31.060,,729,724,223
17:18:31.070,,754,688,221
17:18:31.080,,824,703,228
17:18:31.090,,877,687,259
17:18:31.100,,895,691,233
17:18:31.110,,939,721,226
17:18:31.120,,944,729,228
17:18:31.130,,944,715,238
17:18:31.140,,885,640,253
17:18:31.150,,865,604,244
17:18:31.160,,851,580,246
17:18:31.170,,829,561,241
17:18:31.180,,824,559,255
17:18:31.190,,830,566,277
17:18:31.200,,833,557,293
17:18:31.210,,835,560,282
17:18:31.220,,839,567,274
17:18:31.230,,846,569,273
17:18:31.240,,835,569,263
17:18:31.250,,821,571,260
17:18:31.260,,805,579,256
17:18:31.270,,808,579,257
17:18:31.280,,820,568,267
17:18:31.290,,835,562,270
17:18:31.300,,855,555,271
17:18:31.310,,877,548,270
17:18:31.320,,900,541,267
17:18:31.330,,920,536,253
17:18:31.340,,924,528,243
17:18:31.350,,911,518,239
17:18:31.360,,901,504,230
17:18:31.370,,882,488,223
17:18:31.380,,846,470,217
17:18:31.390,,808,459,217
17:18:31.400,,753,431,222
17:18:31.410,,736,421,221
17:18:31.420,,712,411,214
17:18:31.430,,701,405,211
17:18:31.440,,698,405,207
17:18:31.450,,696,391,214
17:18:31.460,,695,380,224
17:18:31.470,,701,376,232
17:18:31.480,,703,372,236
17:18:31.490,,697,369,237
17:18:31.500,,717,394,242
17:18:31.510,,700,411,244
17:18:31.520,,702,466,254
17:18:31.530,,699,493,261
17:18:31.540,,700,518,260
17:18:31.550,,707,540,263
17:18:31.560,,709,551,261
17:18:31.570,,721,563,270
17:18:31.580,,724,580,270
17:18:31.590,,734,601,267
17:18:31.600,,737,610,271
17:18:31.610,,739,627,270
17:18:31.620,,714,640,261
17:18:31.630,,706,648,283
17:18:31.640,,697,637,286
17:18:31.650,,689,621,300
17:18:31.660,,702,621,308
17:18:31.670,,727,623,311
17:18:31.680,,761,634,319
17:18:31.690,,790,656,325
17:18:31.700,,807,660,336
17:18:31.710,,823,657,338
17:18:31.720,,831,655,327
17:18:31.730,,828,652,308
17:18:31.740,,811,657,279
17:18:31.750,,796,661,251
17:18:31.879,,609,609,276
17:18:31.880,,609,609,276
17:18:31.881,,609,609,276
17:18:31.883,,617,592,265
17:18:31.884,,617,592,265
17:18:31.886,,617,592,265
17:18:31.887,,617,592,265
17:18:31.888,,617,592,265
17:18:31.890,,617,592,265
17:18:31.891,,617,592,265
17:18:31.892,,641,581,254
17:18:31.894,,641,581,254
17:18:31.895,,641,581,254
17:18:31.897,,641,581,254
17:18:31.900,,641,581,254
17:18:31.910,,732,592,254
17:18:31.920,,791,611,262
17:18:31.930,,848,640,274
17:18:31.940,,885,674,280
17:18:31.950,,889,694,282
17:18:31.960,,873,709,278
17:18:31.970,,850,719,272
17:18:31.980,,818,714,276
17:18:31.990,,770,699,282
17:18:32.000,,721,681,286
17:18:32.010,,677,666,291
17:18:32.020,,643,654,296
17:18:32.030,,623,640,319
17:18:32.040,,606,611,289
17:18:32.050,,621,614,313
17:18:32.060,,632,604,310
17:18:32.070,,646,589,312
17:18:32.080,,659,572,308
17:18:32.090,,674,562,305
17:18:32.100,,687,556,298
17:18:32.110,,700,555,280
17:18:32.120,,713,563,262
17:18:32.130,,717,577,242
17:18:32.140,,729,591,224
17:18:32.150,,736,608,210
17:18:32.160,,741,614,186
17:18:32.170,,753,615,182
17:18:32.180,,755,609,177
17:18:32.190,,750,607,161
17:18:32.200,,778,639,203
17:18:32.210,,730,617,161
17:18:32.220,,750,640,183
17:18:32.230,,733,643,200
17:18:32.240,,718,653,223
17:18:32.250,,706,666,232
17:18:32.260,,694,677,255
17:18:32.270,,673,694,263
17:18:32.280,,662,704,280
17:18:32.290,,673,712,310
17:18:32.300,,692,713,320
17:18:32.310,,724,718,333
17:18:32.320,,759,724,348
17:18:32.330,,791,727,351
17:18:32.340,,814,731,353
17:18:32.350,,817,731,345
17:18:32.360,,814,711,350
17:18:32.370,,815,702,336
17:18:32.380,,773,696,313
17:18:32.390,,780,686,311
17:18:32.400,,788,647,287
17:18:32.410,,787,626,278
17:18:32.420,,821,621,272
17:18:32.430,,838,621,277
17:18:32.440,,839,612,273
17:18:32.450,,824,603,271
17:18:32.460,,802,598,263
17:18:32.470,,781,600,257
17:18:32.480,,773,587,264
17:18:32.490,,760,565,253
17:18:32.500,,762,552,272
17:18:32.510,,778,563,291
17:18:32.520,,795,569,307
17:18:32.530,,817,564,324
17:18:32.540,,824,539,344
17:18:32.550,,854,524,354
17:18:32.560,,862,520,333
17:18:32.570,,868,525,309
17:18:32.580,,859,527,282
17:18:32.590,,842,525,246
17:18:32.600,,829,515,229
17:18:32.610,,810,499,211
17:18:32.620,,793,489,196
17:18:32.630,,768,473,186
17:18:32.640,,754,462,182
17:18:32.650,,740,449,182
17:18:32.660,,729,431,189
17:18:32.670,,728,414,204
17:18:32.680,,725,405,216
17:18:32.690,,722,413,231
17:18:32.700,,726,424,242
17:18:32.710,,734,435,253
17:18:32.720,,735,453,261
17:18:32.730,,732,476,270
17:18:32.740,,734,505,282
17:18:32.750,,729,530,291
17:18:32.760,,726,543,298
17:18:32.770,,732,559,315
17:18:32.780,,724,572,315
17:18:32.790,,733,583,317
17:18:32.800,,739,588,289
17:18:32.810,,743,601,274
17:18:32.820,,737,610,262
17:18:32.830,,727,612,255
17:18:32.840,,721,609,258
17:18:32.850,,701,589,251
17:18:32.860,,713,595,287
17:18:32.870,,690,579,289
17:18:32.880,,697,574,306
17:18:32.890,,723,584,321
17:18:32.900,,747,579,341
17:18:32.910,,796,592,339
17:18:32.920,,839,604,340
17:18:32.930,,875,651,295
17:18:32.940,,873,667,268
17:18:32.950,,873,671,244
17:18:32.960,,852,663,236
17:18:32.970,,820,650,238
17:18:32.980,,803,645,251
17:18:32.990,,789,640,269
17:18:33.000,,780,629,284
17:18:33.010,,772,625,293
17:18:33.020,,763,635,309
17:18:33.030,,735,640,322
17:18:33.040,,694,637,334
17:18:33.050,,640,622,344
17:18:33.060,,560,588,340
17:18:33.070,,548,565,332
17:18:33.080,,547,546,327
17:18:33.090,,581,537,324
17:18:33.100,,630,537,316
17:18:33.110,,684,540,315
17:18:33.120,,739,540,308
17:18:33.130,,789,542,300
17:18:33.140,,819,550,291
17:18:33.150,,843,560,279
17:18:33.160,,849,563,276
17:18:33.170,,839,561,275
17:18:33.180,,816,563,282
17:18:33.190,,742,571,316
17:18:33.200,,716,571,330
17:18:33.210,,699,576,342
17:18:33.220,,692,585,345
17:18:33.230,,688,598,338
17:18:33.240,,681,613,328
17:18:33.250,,685,624,318
17:18:33.260,,691,629,309
17:18:33.270,,691,628,304
17:18:33.280,,689,626,301
17:18:33.290,,688,629,300
17:18:33.300,,683,633,300
17:18:33.310,,682,637,301
17:18:33.320,,691,656,300
17:18:33.447,,716,704,247
17:18:33.449,,716,704,247
17:18:33.450,,704,704,246
17:18:33.451,,704,704,246
17:18:33.453,,704,704,246
17:18:33.454,,704,704,246
17:18:33.455,,704,704,246
17:18:33.457,,704,704,246
17:18:33.458,,704,704,246
17:18:33.460,,682,689,238
17:18:33.461,,682,689,238
17:18:33.462,,682,689,238
17:18:33.464,,682,689,238
17:18:33.465,,682,689,238
17:18:33.470,,678,682,243
17:18:33.480,,666,669,258
17:18:33.490,,660,648,268
17:18:33.500,,670,633,293
17:18:33.510,,691,617,294
17:18:33.520,,727,613,294
17:18:33.530,,758,615,296
17:18:33.540,,784,625,283
17:18:33.550,,804,649,282
17:18:33.560,,809,666,286
17:18:33.570,,799,676,285
17:18:33.580,,778,668,287
17:18:33.590,,796,657,296
17:18:33.600,,826,647,320
17:18:33.610,,875,657,318
17:18:33.620,,909,661,329
17:18:33.630,,905,663,345
17:18:33.640,,879,668,332
17:18:33.650,,825,658,314
17:18:33.660,,766,649,293
17:18:33.670,,708,633,270
17:18:33.680,,659,616,252
17:18:33.690,,634,606,249
17:18:33.700,,640,584,250
17:18:33.710,,672,571,263
17:18:33.720,,707,550,273
17:18:33.730,,761,550,299
17:18:33.740,,821,546,310
17:18:33.750,,869,532,317
17:18:33.760,,915,546,316
17:18:33.770,,935,543,311
17:18:33.780,,937,541,279
17:18:33.790,,936,543,264
17:18:33.800,,917,543,251
17:18:33.810,,886,540,242
17:18:33.820,,837,517,229
17:18:33.830,,773,507,227
17:18:33.840,,744,496,228
17:18:33.850,,729,485,222
17:18:33.860,,714,470,220
17:18:33.870,,706,454,220
17:18:33.880,,715,446,227
17:18:33.890,,722,437,235
17:18:33.900,,723,422,243
17:18:33.910,,732,420,263
17:18:33.920,,729,419,266
17:18:33.930,,736,422,299
17:18:33.940,,744,430,296
17:18:33.950,,734,436,308
17:18:33.960,,738,495,340
17:18:33.970,,736,511,315
17:18:33.980,,745,541,329
17:18:33.990,,755,565,320
17:18:34.000,,770,586,319
17:18:34.010,,786,617,331
17:18:34.020,,776,636,336
17:18:34.030,,756,645,355
17:18:34.040,,746,650,358
17:18:34.050,,738,643,355
17:18:34.060,,727,631,344
17:18:34.070,,715,622,332
17:18:34.080,,693,609,320
17:18:34.090,,724,596,322
17:18:34.100,,738,580,328
17:18:34.110,,760,565,335
17:18:34.120,,804,553,341
17:18:34.130,,851,552,340
17:18:34.140,,882,553,320
17:18:34.150,,895,558,296
17:18:34.160,,898,557,266
17:18:34.170,,890,553,240
17:18:34.180,,871,541,227
17:18:34.190,,855,522,225
17:18:34.200,,829,508,234
17:18:34.210,,801,497,271
17:18:34.220,,751,490,291
17:18:34.230,,749,527,302
17:18:34.240,,719,530,312
17:18:34.250,,696,555,305
17:18:34.260,,655,576,296
17:18:34.270,,616,591,288
17:18:34.280,,578,603,283
17:18:34.290,,568,604,291
17:18:34.300,,579,602,302
17:18:34.310,,605,586,319
17:18:34.320,,657,572,336
17:18:34.330,,726,560,345
17:18:34.340,,858,572,325
17:18:34.350,,891,589,308
17:18:34.360,,914,596,287
17:18:34.370,,929,595,271
17:18:34.380,,921,591,253
17:18:34.390,,897,589,243
17:18:34.400,,864,600,242
17:18:34.410,,813,614,241
17:18:34.420,,764,621,248
17:18:34.430,,720,630,256
17:18:34.440,,691,634,268
17:18:34.450,,663,638,287
17:18:34.460,,638,641,307
17:18:34.470,,618,635,345
17:18:34.480,,615,635,360
17:18:34.490,,618,637,371
17:18:34.500,,625,637,378
17:18:34.510,,635,637,383
17:18:34.520,,643,637,380
