Sensors' Acquisition [Hz]: Acc@104.0 
hh:mm:ss.ms, Annotation , AccX [mg], AccY, AccZ
17:18:42.342,,-669,675,220
17:18:42.352,,-683,681,210
17:18:42.362,,-687,684,207
17:18:42.372,,-680,680,218
17:18:42.382,,-672,667,222
17:18:42.392,,-669,672,235
17:18:42.402,,-679,690,246
17:18:42.412,,-695,710,253
17:18:42.422,,-701,723,247
17:18:42.432,>Stationary,,,
17:18:42.433,,-704,727,228
17:18:42.442,,-694,726,222
17:18:42.453,,-669,699,246
17:18:42.462,,-663,696,251
17:18:42.473,,-666,694,256
17:18:42.482,,-666,691,256
17:18:42.493,,-670,698,256
17:18:42.502,,-671,696,258
17:18:42.512,,-666,688,268
17:18:42.522,,-660,682,270
17:18:42.532,,-656,679,263
17:18:42.542,,-655,676,260
17:18:42.552,,-658,676,264
17:18:42.562,,-661,674,262
17:18:42.572,,-666,674,260
17:18:42.582,,-674,675,256
17:18:42.592,,-673,666,248
17:18:42.602,,-673,666,250
17:18:42.612,,-674,666,260
17:18:42.622,,-674,666,271
17:18:42.632,,-669,664,281
17:18:42.642,,-670,664,284
17:18:42.652,,-676,667,278
17:18:42.662,,-682,671,269
17:18:42.672,,-681,675,264
17:18:42.682,,-682,677,268
17:18:42.692,,-688,678,274
17:18:42.702,,-687,674,275
17:18:42.712,,-680,666,279
17:18:42.722,,-670,652,286
17:18:42.732,,-673,648,290
17:18:42.742,,-674,647,291
17:18:42.752,,-672,648,287
17:18:42.762,,-674,647,289
17:18:42.772,,-674,649,290
17:18:42.782,,-681,642,290
17:18:42.792,,-679,653,292
17:18:42.802,,-689,661,284
17:18:42.812,,-692,655,286
17:18:42.822,,-692,658,289
17:18:42.832,,-692,651,294
17:18:42.842,,-694,649,307
17:18:42.852,,-714,666,302
17:18:42.862,,-733,667,299
17:18:42.872,,-726,671,300
17:18:42.882,,-723,664,301
17:18:42.892,,-722,668,301
17:18:42.902,,-725,669,300
17:18:42.912,,-722,667,298
17:18:42.922,,-719,661,303
17:18:42.932,,-713,658,302
17:18:42.942,,-705,651,296
17:18:42.952,,-701,641,292
17:18:42.962,,-696,636,292
17:18:42.972,,-693,612,290
17:18:42.982,,-684,603,304
17:18:42.992,,-686,611,305
17:18:43.002,,-689,604,307
17:18:43.012,,-690,608,307
17:18:43.022,,-693,613,304
17:18:43.032,,-690,614,303
17:18:43.042,,-692,616,305
17:18:43.052,,-685,633,308
17:18:43.062,,-686,648,307
17:18:43.072,,-715,639,313
17:18:43.082,,-712,645,322
17:18:43.092,,-726,636,323
17:18:43.102,,-719,623,323
17:18:43.112,,-731,621,316
17:18:43.122,,-724,619,313
17:18:43.132,,-716,610,311
17:18:43.142,,-707,610,309
17:18:43.152,,-696,597,308
17:18:43.162,,-679,592,307
17:18:43.172,,-677,588,306
17:18:43.182,,-669,592,308
17:18:43.192,,-674,602,311
17:18:43.202,,-678,612,316
17:18:43.212,,-682,613,314
17:18:43.222,,-682,627,314
17:18:43.232,,-691,630,316
17:18:43.242,,-693,632,320
17:18:43.252,,-693,632,326
17:18:43.262,,-690,626,329
17:18:43.272,,-681,626,329
17:18:43.282,,-683,624,324
17:18:43.292,,-678,621,320
17:18:43.302,,-677,618,319
17:18:43.312,,-669,615,318
17:18:43.322,,-669,615,323
17:18:43.332,,-660,610,329
17:18:43.342,,-656,611,331
17:18:43.352,,-659,617,333
17:18:43.362,,-657,632,343
17:18:43.372,,-661,641,341
17:18:43.382,,-669,650,336
17:18:43.392,,-675,661,330
17:18:43.402,,-684,660,327
17:18:43.412,,-690,678,338
17:18:43.422,,-708,685,328
17:18:43.432,,-724,689,313
17:18:43.442,,-734,694,308
17:18:43.452,,-752,699,301
17:18:43.462,,-758,702,302
17:18:43.472,,-756,704,287
17:18:43.482,,-752,687,309
17:18:43.492,,-720,669,298
17:18:43.502,,-695,656,277
17:18:43.512,,-673,646,264
17:18:43.522,,-652,641,263
17:18:43.532,,-635,636,274
17:18:43.542,,-621,631,280
17:18:43.552,,-602,636,294
17:18:43.562,,-599,629,294
17:18:43.572,,-600,633,298
17:18:43.582,,-616,648,295
17:18:43.592,,-633,654,288
17:18:43.602,,-650,686,289
17:18:43.612,,-691,703,275
17:18:43.622,,-714,694,275
17:18:43.632,,-701,693,276
17:18:43.642,,-686,666,260
17:18:43.652,,-679,670,264
17:18:43.662,,-703,660,268
17:18:43.672,,-689,678,296
17:18:43.682,,-688,670,271
17:18:43.692,,-705,658,244
17:18:43.702,,-695,654,247
17:18:43.712,,-664,677,252
17:18:43.722,,-654,669,218
17:18:43.732,,-663,666,226
17:18:43.742,,-659,678,239
17:18:43.752,,-654,680,232
17:18:43.762,,-656,682,233
17:18:43.772,,-654,682,226
17:18:43.782,,-655,680,222
17:18:43.792,,-651,680,226
17:18:43.802,,-654,679,229
17:18:43.812,,-650,676,239
17:18:43.934,,-639,734,253
17:18:43.935,,-639,734,253
17:18:43.936,,-639,734,253
17:18:43.938,,-630,726,266
17:18:43.939,,-630,726,266
17:18:43.940,,-630,726,266
17:18:43.942,,-630,726,266
17:18:43.943,,-630,726,266
17:18:43.945,,-630,726,266
17:18:43.946,,-630,726,266
17:18:43.947,,-621,718,271
17:18:43.949,,-621,718,271
17:18:43.950,,-621,718,271
17:18:43.952,,-621,718,271
17:18:43.962,,-615,710,265
17:18:43.972,,-626,714,254
17:18:43.982,,-613,702,233
17:18:43.992,,-637,728,240
17:18:44.002,,-644,734,227
17:18:44.012,,-642,732,222
17:18:44.022,,-645,737,216
17:18:44.032,,-650,737,224
17:18:44.042,,-645,729,225
17:18:44.052,,-654,728,233
17:18:44.062,,-663,733,235
17:18:44.072,,-666,738,242
17:18:44.082,,-672,735,247
17:18:44.092,,-676,734,250
17:18:44.102,,-678,735,249
17:18:44.112,,-678,733,246
17:18:44.122,,-674,731,240
17:18:44.132,,-671,727,243
17:18:44.142,,-662,720,242
17:18:44.152,,-655,716,237
17:18:44.162,,-650,714,237
17:18:44.172,,-646,711,237
17:18:44.182,,-637,707,238
17:18:44.192,,-633,711,236
17:18:44.202,,-636,716,238
17:18:44.212,,-638,722,242
17:18:44.222,,-650,733,241
17:18:44.232,,-657,741,242
17:18:44.242,,-650,735,248
17:18:44.252,,-646,728,243
17:18:44.262,,-653,729,243
17:18:44.272,,-652,726,242
17:18:44.282,,-651,722,249
17:18:44.292,,-651,719,252
17:18:44.302,,-647,713,249
17:18:44.312,,-645,709,243
17:18:44.322,,-646,706,239
17:18:44.332,,-647,703,235
17:18:44.342,,-645,705,240
17:18:44.352,,-646,694,245
17:18:44.362,,-647,690,242
17:18:44.372,,-647,690,232
17:18:44.382,,-646,688,221
17:18:44.392,,-647,690,212
17:18:44.402,,-648,695,207
17:18:44.412,,-654,704,209
17:18:44.422,,-660,707,217
17:18:44.432,,-664,709,221
17:18:44.442,,-665,710,222
17:18:44.452,,-672,717,219
17:18:44.462,,-675,723,213
17:18:44.472,,-677,731,211
17:18:44.482,,-682,729,219
17:18:44.492,,-675,730,230
17:18:44.502,,-675,722,234
17:18:44.512,,-668,705,229
17:18:44.522,,-678,692,231
17:18:44.532,,-663,716,241
17:18:44.542,,-682,701,206
17:18:44.552,,-685,704,208
17:18:44.562,,-682,697,207
17:18:44.572,,-676,702,223
17:18:44.582,,-657,719,227
17:18:44.592,,-670,702,185
17:18:44.602,,-672,708,181
17:18:44.612,,-668,717,168
17:18:44.622,,-663,721,155
17:18:44.632,,-657,724,151
17:18:44.642,,-657,726,162
17:18:44.652,,-659,727,163
17:18:44.662,,-658,725,168
17:18:44.672,,-657,723,168
17:18:44.682,,-665,729,159
17:18:44.692,,-662,728,143
17:18:44.702,,-658,731,119
17:18:44.712,,-664,734,108
17:18:44.722,,-668,740,106
17:18:44.732,,-669,742,112
17:18:44.742,,-674,744,123
17:18:44.752,,-676,739,134
17:18:44.762,,-674,738,144
17:18:44.772,,-659,717,151
17:18:44.782,,-653,709,162
17:18:44.792,,-657,707,168
17:18:44.802,,-660,710,178
17:18:44.812,,-664,709,179
17:18:44.822,,-669,713,176
17:18:44.832,,-670,717,170
17:18:44.842,,-671,718,162
17:18:44.852,,-670,714,158
17:18:44.862,,-664,708,157
17:18:44.872,,-661,703,156
17:18:44.882,,-659,699,149
17:18:44.892,,-659,695,132
17:18:44.902,,-669,696,124
17:18:44.912,,-674,699,122
17:18:44.922,,-683,704,124
17:18:44.932,,-698,708,127
17:18:44.942,,-713,713,130
17:18:44.952,,-721,713,130
17:18:44.962,,-723,711,124
17:18:44.972,,-723,703,117
17:18:44.982,,-719,693,114
17:18:44.992,,-714,681,120
17:18:45.002,,-716,672,132
17:18:45.012,,-718,665,144
17:18:45.022,,-721,667,161
17:18:45.032,,-730,668,167
17:18:45.042,,-728,668,169
17:18:45.052,,-731,670,169
17:18:45.062,,-728,668,165
17:18:45.072,,-728,671,170
17:18:45.082,,-732,674,182
17:18:45.092,,-741,680,197
17:18:45.102,,-749,683,204
17:18:45.112,,-751,681,207
17:18:45.122,,-744,673,204
17:18:45.132,,-731,661,197
17:18:45.142,,-717,650,198
17:18:45.152,,-697,631,206
17:18:45.162,,-692,627,207
17:18:45.172,,-690,623,206
17:18:45.182,,-690,622,201
17:18:45.192,,-695,622,196
17:18:45.202,,-703,625,188
17:18:45.212,,-714,630,173
17:18:45.222,,-726,633,163
17:18:45.232,,-742,638,158
17:18:45.242,,-750,636,159
17:18:45.252,,-753,627,157
17:18:45.262,,-747,627,161
17:18:45.272,,-751,617,154
17:18:45.282,,-748,614,162
17:18:45.292,,-746,615,168
17:18:45.302,,-747,617,174
17:18:45.312,,-746,615,184
17:18:45.322,,-739,613,196
17:18:45.332,,-734,605,211
17:18:45.458,,-727,629,277
17:18:45.460,,-727,629,277
17:18:45.461,,-727,629,277
17:18:45.462,,-727,629,277
17:18:45.464,,-727,629,277
17:18:45.465,,-727,629,277
17:18:45.467,,-727,629,277
17:18:45.468,,-718,619,285
17:18:45.469,,-718,619,285
17:18:45.471,,-718,619,285
17:18:45.472,,-718,619,285
17:18:45.473,,-718,619,285
17:18:45.475,,-718,619,285
17:18:45.476,,-718,619,285
17:18:45.482,,-707,613,288
17:18:45.492,,-691,608,284
17:18:45.502,,-683,606,279
17:18:45.512,,-679,605,274
17:18:45.522,,-676,603,269
17:18:45.532,,-676,615,272
17:18:45.542,,-682,610,273
17:18:45.552,,-692,615,277
17:18:45.562,,-701,617,289
17:18:45.572,,-709,619,300
17:18:45.582,,-719,617,302
17:18:45.592,,-722,626,306
17:18:45.602,,-731,620,294
17:18:45.612,,-731,621,289
17:18:45.622,,-731,622,289
17:18:45.632,,-726,616,295
17:18:45.642,,-715,606,297
17:18:45.652,,-705,597,298
17:18:45.662,,-700,598,270
17:18:45.672,,-718,606,271
17:18:45.682,,-721,614,273
17:18:45.692,,-722,612,280
17:18:45.702,,-721,607,283
17:18:45.712,,-720,610,292
17:18:45.722,,-730,612,278
17:18:45.732,,-740,615,270
17:18:45.742,,-752,625,265
17:18:45.752,,-763,633,260
17:18:45.762,,-769,639,257
17:18:45.772,,-773,648,256
17:18:45.782,,-775,648,253
17:18:45.792,,-755,644,246
17:18:45.802,,-747,645,240
17:18:45.812,,-744,647,235
17:18:45.822,,-735,641,230
17:18:45.832,,-719,633,224
17:18:45.842,,-713,622,220
17:18:45.852,,-702,616,216
17:18:45.862,,-695,611,216
17:18:45.872,,-691,608,215
17:18:45.882,,-687,612,215
17:18:45.892,,-687,619,211
17:18:45.902,,-691,631,206
17:18:45.912,,-697,646,199
17:18:45.922,,-718,678,189
17:18:45.932,,-717,680,179
17:18:45.942,,-710,678,172
17:18:45.952,,-703,681,177
17:18:45.962,,-689,670,181
17:18:45.972,,-679,670,195
17:18:45.982,,-686,674,203
17:18:45.992,,-687,678,208
17:18:46.002,,-689,681,203
17:18:46.012,,-691,683,195
17:18:46.022,,-688,683,200
17:18:46.032,,-690,683,205
17:18:46.042,,-693,687,213
17:18:46.052,,-701,695,224
17:18:46.062,,-696,695,232
17:18:46.072,,-688,695,239
17:18:46.082,,-687,691,243
17:18:46.092,,-684,696,247
17:18:46.102,,-678,694,245
17:18:46.112,,-681,696,244
17:18:46.122,,-680,692,236
17:18:46.132,,-681,688,228
17:18:46.142,,-679,682,223
17:18:46.152,,-682,681,220
17:18:46.162,,-681,679,224
17:18:46.172,,-673,679,226
17:18:46.182,,-671,684,221
17:18:46.192,,-672,687,222
17:18:46.202,,-662,689,223
17:18:46.212,,-663,693,222
17:18:46.222,,-665,684,229
17:18:46.232,,-654,699,228
17:18:46.242,,-677,705,220
17:18:46.252,,-693,716,225
17:18:46.262,,-698,718,219
17:18:46.272,,-695,711,215
17:18:46.282,,-690,704,217
17:18:46.292,,-688,700,218
17:18:46.302,,-677,694,231
17:18:46.312,,-661,685,234
17:18:46.322,,-659,686,235
17:18:46.332,,-657,689,239
17:18:46.342,,-661,698,237
17:18:46.352,,-663,701,233
17:18:46.362,,-661,700,224
17:18:46.372,,-662,699,221
17:18:46.382,,-660,695,222
17:18:46.392,,-657,694,226
17:18:46.402,,-658,694,231
17:18:46.412,,-660,699,235
17:18:46.422,,-660,699,238
17:18:46.432,,-661,706,238
17:18:46.442,,-660,708,238
17:18:46.452,,-663,711,238
17:18:46.462,,-664,714,238
17:18:46.472,,-659,708,242
17:18:46.482,,-653,704,250
17:18:46.492,,-653,702,258
17:18:46.502,,-651,701,256
17:18:46.512,,-651,698,252
17:18:46.522,,-653,700,248
17:18:46.532,,-658,701,246
17:18:46.542,,-660,699,246
17:18:46.552,,-656,703,256
17:18:46.562,,-667,698,243
17:18:46.572,,-670,698,238
17:18:46.582,,-679,700,235
17:18:46.592,,-678,697,235
17:18:46.602,,-674,695,232
17:18:46.612,,-667,694,230
17:18:46.622,,-667,693,229
17:18:46.632,,-668,695,233
17:18:46.642,,-661,694,238
17:18:46.652,,-659,695,245
17:18:46.662,,-658,696,248
17:18:46.672,,-656,694,248
17:18:46.682,,-654,699,252
17:18:46.692,,-661,696,251
17:18:46.702,,-663,699,248
17:18:46.712,,-666,704,247
17:18:46.722,,-665,704,251
17:18:46.732,,-660,703,255
17:18:46.742,,-658,702,260
17:18:46.752,,-653,699,267
17:18:46.762,,-651,697,268
17:18:46.772,,-650,695,268
17:18:46.782,,-650,697,265
17:18:46.792,,-652,699,264
17:18:46.802,,-652,700,267
17:18:46.812,,-649,698,266
17:18:46.822,,-653,702,260
17:18:46.832,,-654,703,260
17:18:46.842,,-653,704,263
17:18:46.963,,-639,707,282
17:18:46.964,,-639,707,282
17:18:46.966,,-639,707,282
17:18:46.967,,-639,707,282
17:18:46.968,,-639,707,282
17:18:46.970,,-639,707,282
17:18:46.971,,-641,710,281
17:18:46.972,,-641,710,281
17:18:46.974,,-641,710,281
17:18:46.975,,-641,710,281
17:18:46.976,,-641,710,281
17:18:46.978,,-641,710,281
17:18:46.979,,-641,711,282
17:18:46.982,,-642,711,282
17:18:46.992,,-640,715,280
17:18:47.002,,-639,719,280
17:18:47.012,,-636,716,277
17:18:47.022,,-635,711,285
17:18:47.032,,-627,706,285
17:18:47.042,,-621,706,286
17:18:47.052,,-625,709,289
17:18:47.062,,-630,712,295
17:18:47.072,,-634,707,304
17:18:47.082,,-631,705,302
17:18:47.092,,-627,705,297
17:18:47.102,,-627,704,295
17:18:47.112,,-625,708,297
17:18:47.122,,-633,718,292
17:18:47.132,,-634,723,291
17:18:47.142,,-634,723,298
17:18:47.152,,-632,722,302
17:18:47.162,,-628,716,304
17:18:47.172,,-622,706,298
17:18:47.182,,-615,703,296
17:18:47.192,,-612,695,286
17:18:47.202,,-606,696,267
17:18:47.212,,-605,701,264
17:18:47.222,,-603,707,265
17:18:47.232,,-603,715,275
17:18:47.242,,-605,721,290
17:18:47.252,,-607,724,308
17:18:47.262,,-611,725,314
17:18:47.272,,-613,727,308
17:18:47.282,,-610,726,298
17:18:47.292,,-607,725,292
17:18:47.302,,-605,723,295
17:18:47.312,,-607,723,300
17:18:47.322,,-607,721,306
17:18:47.332,,-610,719,309
17:18:47.342,,-614,719,305
17:18:47.352,,-612,719,304
17:18:47.362,,-612,718,300
17:18:47.372,,-611,717,303
17:18:47.382,,-615,719,307
17:18:47.392,,-614,722,312
17:18:47.402,,-614,726,313
17:18:47.412,,-618,731,317
17:18:47.422,,-616,733,318
17:18:47.432,,-616,731,313
17:18:47.442,,-609,728,313
17:18:47.452,,-612,724,309
17:18:47.462,,-614,720,310
17:18:47.472,,-615,720,305
17:18:47.482,,-612,716,298
17:18:47.492,,-606,708,294
17:18:47.502,,-599,701,294
17:18:47.512,,-594,697,297
17:18:47.522,,-595,697,300
17:18:47.532,,-591,695,300
17:18:47.542,,-586,695,299
17:18:47.552,,-584,694,295
17:18:47.562,,-579,693,290
17:18:47.572,,-574,693,286
17:18:47.582,,-580,696,291
17:18:47.592,,-594,694,282
17:18:47.602,,-610,698,284
17:18:47.612,,-625,706,291
17:18:47.622,,-628,713,290
17:18:47.632,,-630,717,292
17:18:47.642,,-629,724,300
17:18:47.652,,-629,726,313
17:18:47.662,,-626,729,323
17:18:47.672,,-625,732,325
17:18:47.682,,-625,740,327
17:18:47.692,,-622,748,328
17:18:47.702,,-622,752,327
17:18:47.712,,-618,753,312
17:18:47.722,,-605,746,300
17:18:47.732,,-609,746,288
17:18:47.742,,-604,747,278
17:18:47.752,,-610,751,270
17:18:47.762,,-613,753,271
17:18:47.772,,-617,753,272
17:18:47.782,,-612,755,276
17:18:47.792,,-614,755,283
17:18:47.802,,-614,755,278
17:18:47.812,,-612,753,277
17:18:47.822,,-607,752,271
17:18:47.832,,-604,746,262
17:18:47.842,,-603,737,258
17:18:47.852,,-604,731,269
17:18:47.862,,-602,727,280
17:18:47.872,,-599,723,290
17:18:47.882,,-598,718,297
17:18:47.892,,-602,717,295
17:18:47.902,,-608,720,288
17:18:47.912,,-617,726,280
17:18:47.922,,-623,732,269
17:18:47.932,,-629,737,266
17:18:47.942,,-629,737,266
17:18:47.952,,-626,734,268
17:18:47.962,,-618,731,272
17:18:47.972,,-603,721,279
17:18:47.982,,-606,721,280
17:18:47.992,,-613,724,276
17:18:48.002,,-616,726,271
17:18:48.012,,-616,728,266
17:18:48.022,,-617,729,261
17:18:48.032,,-614,728,257
17:18:48.042,,-610,724,252
17:18:48.052,,-609,719,248
17:18:48.062,,-610,715,252
17:18:48.072,,-616,715,265
17:18:48.082,,-621,718,277
17:18:48.092,,-625,723,287
17:18:48.102,,-618,723,283
17:18:48.112,,-619,727,282
17:18:48.122,,-625,729,284
17:18:48.132,,-623,730,284
17:18:48.142,,-630,729,282
17:18:48.152,,-631,727,279
17:18:48.162,,-634,726,274
17:18:48.172,,-636,723,265
17:18:48.182,,-639,719,256
17:18:48.192,,-642,714,245
17:18:48.202,,-643,708,239
17:18:48.212,,-650,705,232
17:18:48.222,,-648,700,229
17:18:48.232,,-651,692,225
17:18:48.242,,-650,690,215
17:18:48.252,,-651,686,203
17:18:48.262,,-648,681,196
17:18:48.272,,-644,678,201
17:18:48.282,,-644,677,212
17:18:48.292,,-650,684,217
17:18:48.302,,-664,681,215
17:18:48.312,,-669,705,225
17:18:48.322,,-684,700,201
17:18:48.332,,-689,695,194
17:18:48.342,,-684,693,195
17:18:48.352,,-679,684,196
17:18:48.362,,-677,679,199
17:18:48.489,,-704,689,151
17:18:48.490,,-704,689,151
17:18:48.492,,-707,694,149
17:18:48.493,,-707,694,149
17:18:48.494,,-707,694,149
17:18:48.496,,-707,694,149
17:18:48.497,,-707,694,149
17:18:48.498,,-707,694,149
17:18:48.500,,-707,694,149
17:18:48.501,,-691,689,141
17:18:48.503,,-691,689,141
17:18:48.504,,-691,689,141
17:18:48.505,,-691,689,141
17:18:48.507,,-691,689,141
17:18:48.512,,-695,694,136
17:18:48.522,,-701,701,139
17:18:48.532,,-701,696,145
17:18:48.542,,-697,692,157
17:18:48.552,,-694,686,162
17:18:48.562,,-687,687,167
17:18:48.572,,-698,685,173
17:18:48.582,,-698,696,164
17:18:48.592,,-700,698,154
17:18:48.602,,-699,693,154
17:18:48.612,,-704,696,146
17:18:48.622,,-696,708,139
17:18:48.632,,-712,697,114
17:18:48.642,,-710,705,124
17:18:48.652,,-710,703,134
17:18:48.662,,-716,700,144
17:18:48.672,,-716,696,148
17:18:48.682,,-712,691,144
17:18:48.692,,-711,669,133
17:18:48.702,,-696,691,149
17:18:48.712,,-702,673,129
17:18:48.722,,-704,670,130
17:18:48.732,,-710,677,141
17:18:48.742,,-718,684,140
17:18:48.752,,-730,654,131
17:18:48.762,,-688,707,158
17:18:48.772,,-707,689,119
17:18:48.782,,-719,683,114
17:18:48.792,,-718,687,122
17:18:48.802,,-715,690,126
17:18:48.812,,-717,690,144
17:18:48.822,,-721,681,169
17:18:48.832,,-696,707,183
17:18:48.842,,-715,691,146
17:18:48.852,,-719,689,150
17:18:48.862,,-714,689,149
17:18:48.872,,-713,676,155
17:18:48.882,,-694,711,177
17:18:48.892,,-708,697,144
17:18:48.902,,-722,694,142
17:18:48.912,,-716,692,142
17:18:48.922,,-721,691,138
17:18:48.932,,-724,680,141
17:18:48.942,,-719,684,156
17:18:48.952,,-699,684,138
17:18:48.962,,-714,669,104
17:18:48.972,,-721,671,123
17:18:48.982,,-727,668,114
17:18:48.992,,-732,658,141
17:18:49.002,,-730,660,123
17:18:49.012,,-732,660,124
17:18:49.022,,-733,658,120
17:18:49.032,,-732,652,117
17:18:49.042,,-734,646,120
17:18:49.052,,-738,630,134
17:18:49.062,,-723,644,142
17:18:49.072,,-745,637,112
17:18:49.082,,-761,638,112
17:18:49.092,,-769,644,113
17:18:49.102,,-775,645,110
17:18:49.112,,-776,643,112
17:18:49.122,,-775,628,129
17:18:49.132,,-756,619,103
17:18:49.142,,-764,616,99
17:18:49.152,,-762,621,104
17:18:49.162,,-759,620,95
17:18:49.172,,-752,621,92
17:18:49.182,,-750,612,86
17:18:49.192,,-749,609,89
17:18:49.202,,-751,609,96
17:18:49.212,,-753,615,107
17:18:49.222,,-761,620,113
17:18:49.232,,-766,632,110
17:18:49.242,,-768,636,108
17:18:49.252,,-775,621,85
17:18:49.262,,-745,616,87
17:18:49.272,,-751,624,118
17:18:49.282,,-751,617,128
17:18:49.292,,-759,605,111
17:18:49.302,,-740,626,96
17:18:49.312,,-749,618,86
17:18:49.322,,-755,625,98
17:18:49.332,,-760,629,105
17:18:49.342,,-762,628,95
17:18:49.352,,-761,626,86
17:18:49.362,,-755,622,82
17:18:49.372,,-752,622,87
17:18:49.382,,-752,625,91
17:18:49.392,,-750,627,97
17:18:49.402,,-752,630,102
17:18:49.412,,-755,630,103
17:18:49.422,,-753,631,96
17:18:49.432,,-755,630,91
17:18:49.442,,-754,631,91
17:18:49.452,,-754,633,94
17:18:49.462,,-750,631,91
17:18:49.472,,-747,632,87
17:18:49.482,,-749,633,91
17:18:49.492,,-751,634,92
17:18:49.502,,-752,635,94
17:18:49.512,,-754,631,101
17:18:49.522,,-756,633,100
17:18:49.532,,-760,638,96
17:18:49.542,,-764,643,93
17:18:49.552,,-767,646,91
17:18:49.562,,-763,640,87
17:18:49.572,,-758,635,79
17:18:49.582,,-753,632,78
17:18:49.592,,-753,629,80
17:18:49.602,,-750,629,86
17:18:49.612,,-745,629,91
17:18:49.622,,-743,638,93
17:18:49.632,,-749,649,96
17:18:49.642,,-742,659,108
17:18:49.652,,-738,663,116
17:18:49.662,,-740,663,124
17:18:49.672,,-741,665,131
17:18:49.682,,-743,670,134
17:18:49.692,,-743,670,131
17:18:49.702,,-741,666,126
17:18:49.712,,-740,665,122
17:18:49.722,,-739,664,117
17:18:49.732,,-739,663,117
17:18:49.742,,-736,661,120
17:18:49.752,,-735,660,120
17:18:49.762,,-737,658,112
17:18:49.772,,-732,659,110
17:18:49.782,,-732,660,113
17:18:49.792,,-735,664,116
17:18:49.802,,-738,668,114
17:18:49.812,,-739,670,112
17:18:49.822,,-739,670,112
17:18:49.832,,-738,671,109
17:18:49.842,,-738,669,106
17:18:49.852,,-737,669,108
17:18:49.862,,-739,670,108
17:18:49.872,,-741,670,110
17:18:49.882,,-743,671,112
17:18:49.892,,-745,673,118
17:18:50.013,,-707,663,106
17:18:50.014,,-707,663,106
17:18:50.015,,-707,663,106
17:18:50.017,,-707,663,106
17:18:50.018,,-707,663,106
17:18:50.019,,-707,663,106
17:18:50.021,,-707,663,106
17:18:50.022,,-709,668,106
17:18:50.024,,-709,668,106
17:18:50.025,,-709,668,106
17:18:50.026,,-709,668,106
17:18:50.028,,-709,668,106
17:18:50.029,,-709,668,106
17:18:50.032,,-710,672,105
17:18:50.042,,-713,674,107
17:18:50.052,,-717,674,113
17:18:50.062,,-721,676,118
17:18:50.072,,-727,678,112
17:18:50.082,,-731,681,104
17:18:50.092,,-730,679,103
17:18:50.102,,-725,678,104
17:18:50.112,,-725,678,104
17:18:50.122,,-723,676,104
17:18:50.132,,-721,676,101
17:18:50.142,,-721,678,100
17:18:50.152,,-726,675,106
17:18:50.162,,-724,670,106
17:18:50.172,,-725,667,107
17:18:50.182,,-728,669,106
17:18:50.192,,-733,670,109
17:18:50.202,,-736,670,109
17:18:50.212,,-734,668,113
17:18:50.222,,-734,668,118
17:18:50.232,,-732,665,119
17:18:50.242,,-730,666,120
17:18:50.252,,-731,666,118
17:18:50.262,,-727,665,118
17:18:50.272,,-725,669,119
17:18:50.282,,-719,661,128
17:18:50.292,,-719,671,128
17:18:50.302,,-719,671,128
17:18:50.312,,-723,681,122
17:18:50.322,,-730,681,114
17:18:50.332,,-730,676,123
17:18:50.342,,-728,668,131
17:18:50.352,,-727,668,128
17:18:50.362,,-729,663,123
17:18:50.372,,-733,664,123
17:18:50.382,,-733,662,122
17:18:50.392,,-727,656,118
17:18:50.402,,-727,656,123
17:18:50.412,,-732,660,131
17:18:50.422,,-736,663,134
17:18:50.432,,-736,661,136
17:18:50.442,,-736,657,136
17:18:50.452,,-731,649,142
17:18:50.462,,-730,649,141
17:18:50.472,,-734,650,142
17:18:50.482,,-741,637,135
17:18:50.492,,-738,645,139
17:18:50.502,,-744,639,143
17:18:50.512,,-747,643,146
17:18:50.522,,-749,644,146
17:18:50.532,,-749,643,142
17:18:50.542,,-745,640,146
17:18:50.552,,-743,639,150
17:18:50.562,,-740,642,157
17:18:50.572,,-744,640,152
17:18:50.582,,-742,644,154
17:18:50.591,,-740,639,151
17:18:50.602,,-741,642,150
17:18:50.612,,-744,637,146
17:18:50.621,,-740,634,147
17:18:50.632,,-740,635,147
17:18:50.642,,-740,635,148
17:18:50.651,,-739,634,150
17:18:50.662,,-732,624,151
17:18:50.672,,-732,627,152
17:18:50.681,,-731,630,153
17:18:50.692,,-732,635,152
17:18:50.702,,-734,633,150
17:18:50.711,,-735,638,151
17:18:50.722,,-735,638,150
17:18:50.731,,-743,641,155
17:18:50.741,,-744,642,153
17:18:50.752,,-746,640,152
17:18:50.761,,-749,633,151
17:18:50.771,,-752,633,151
17:18:50.782,,-752,632,149
17:18:50.791,,-744,631,158
17:18:50.801,,-739,626,161
17:18:50.812,,-742,636,167
17:18:50.821,,-743,639,166
17:18:50.831,,-741,638,162
17:18:50.842,,-737,634,160
17:18:50.851,,-737,632,164
17:18:50.861,,-740,635,166
17:18:50.871,,-742,636,168
17:18:50.881,,-739,633,170
17:18:50.891,,-741,634,168
17:18:50.901,,-747,636,162
17:18:50.911,,-771,670,153
17:18:50.921,,-730,618,169
17:18:50.931,,-727,627,160
17:18:50.941,,-740,617,158
17:18:50.951,,-737,627,157
17:18:50.961,,-738,623,156
17:18:50.971,,-734,624,161
17:18:50.981,,-738,618,159
17:18:50.991,,-749,630,171
17:18:51.001,,-764,636,169
17:18:51.011,,-752,645,178
17:18:51.021,,-771,627,165
17:18:51.031,,-756,631,180
17:18:51.041,,-750,628,180
17:18:51.051,,-738,620,175
17:18:51.061,,-738,621,176
17:18:51.071,,-745,628,184
17:18:51.081,,-746,632,189
17:18:51.091,,-751,632,194
17:18:51.101,,-745,627,192
17:18:51.111,,-740,622,190
17:18:51.121,,-736,616,194
17:18:51.131,,-732,608,195
17:18:51.141,,-734,609,198
17:18:51.151,,-732,607,198
17:18:51.161,,-737,610,201
17:18:51.171,,-740,611,200
17:18:51.181,,-741,617,196
17:18:51.191,,-746,622,195
17:18:51.201,,-747,628,193
17:18:51.211,,-747,628,191
17:18:51.221,,-746,629,189
17:18:51.231,,-744,628,187
17:18:51.241,,-746,628,188
17:18:51.251,,-746,633,188
17:18:51.261,,-742,639,189
17:18:51.271,,-749,627,185
17:18:51.281,,-743,632,181
17:18:51.291,,-737,631,172
17:18:51.301,,-738,613,171
17:18:51.311,,-734,615,188
17:18:51.321,,-733,623,183
17:18:51.331,,-735,617,179
17:18:51.341,,-736,622,201
17:18:51.351,,-751,635,211
17:18:51.361,,-754,633,214
17:18:51.371,,-747,625,197
17:18:51.381,,-742,626,191
17:18:51.391,,-734,621,194
17:18:51.401,,-737,607,197
17:18:51.411,,-732,615,202
17:18:51.547,,-737,631,206
17:18:51.548,,-737,631,206
17:18:51.549,,-737,631,206
17:18:51.551,,-737,631,206
17:18:51.552,,-740,636,208
17:18:51.553,,-740,636,208
17:18:51.555,,-740,636,208
17:18:51.556,,-740,636,208
17:18:51.557,,-740,636,208
17:18:51.559,,-740,636,208
17:18:51.560,,-740,636,208
17:18:51.562,,-738,637,204
17:18:51.563,,-738,637,204
17:18:51.564,,-738,637,204
17:18:51.566,,-738,637,204
17:18:51.571,,-732,635,199
17:18:51.581,,-731,637,199
17:18:51.591,,-730,639,200
17:18:51.601,,-730,644,197
17:18:51.611,,-734,648,198
17:18:51.621,,-733,649,196
17:18:51.631,,-735,649,197
17:18:51.641,,-741,653,195
17:18:51.651,,-744,653,190
17:18:51.661,,-739,652,183
17:18:51.671,,-733,649,181
17:18:51.681,,-724,645,181
17:18:51.691,,-722,650,186
17:18:51.701,,-724,652,189
17:18:51.711,,-720,650,191
17:18:51.721,,-723,652,194
17:18:51.731,,-728,656,196
17:18:51.741,,-735,661,193
17:18:51.751,,-734,660,194
17:18:51.761,,-732,658,196
17:18:51.771,,-730,658,195
17:18:51.781,,-732,660,195
17:18:51.791,,-736,661,198
17:18:51.801,,-731,655,198
17:18:51.811,,-729,653,194
17:18:51.821,,-719,649,187
17:18:51.831,,-718,651,185
17:18:51.841,,-717,645,178
17:18:51.851,,-716,642,192
17:18:51.861,,-722,644,194
17:18:51.871,,-726,645,200
17:18:51.881,,-728,649,200
17:18:51.891,,-736,657,203
17:18:51.901,,-740,662,204
17:18:51.911,,-742,657,199
17:18:51.921,,-735,655,198
17:18:51.931,,-728,652,198
17:18:51.941,,-723,655,196
17:18:51.951,,-728,662,198
17:18:51.961,,-724,660,206
17:18:51.971,,-718,655,211
17:18:51.981,,-711,649,217
17:18:51.991,,-707,646,222
17:18:52.001,,-714,647,224
17:18:52.011,,-719,646,221
17:18:52.021,,-722,646,220
17:18:52.031,,-727,645,216
17:18:52.041,,-730,647,214
17:18:52.051,,-739,652,214
17:18:52.061,,-742,657,216
17:18:52.071,,-737,652,211
17:18:52.081,,-731,650,216
17:18:52.091,,-732,653,213
17:18:52.101,,-728,652,207
17:18:52.111,,-723,652,205
17:18:52.121,,-724,655,206
17:18:52.131,,-726,659,207
17:18:52.141,,-726,663,208
17:18:52.151,,-721,658,209
17:18:52.161,,-715,652,205
17:18:52.171,,-713,651,206
17:18:52.181,,-713,648,206
17:18:52.191,,-716,647,210
17:18:52.201,,-721,650,213
17:18:52.211,,-726,651,212
17:18:52.221,,-729,657,208
17:18:52.231,,-735,659,205
17:18:52.241,,-732,658,203
17:18:52.251,,-731,658,204
17:18:52.261,,-728,652,204
17:18:52.271,,-731,653,206
17:18:52.281,,-729,650,206
17:18:52.291,,-728,652,205
17:18:52.301,,-726,652,206
17:18:52.311,,-726,651,209
17:18:52.321,,-721,649,210
17:18:52.331,,-720,650,214
17:18:52.341,,-721,652,213
17:18:52.351,,-719,653,209
17:18:52.361,,-718,653,210
17:18:52.371,,-718,653,209
17:18:52.381,,-717,652,213
17:18:52.391,,-716,647,212
17:18:52.401,,-719,647,211
17:18:52.411,,-720,647,212
17:18:52.421,,-723,648,206
17:18:52.431,,-725,650,204
17:18:52.441,,-721,652,208
17:18:52.451,,-718,652,217
17:18:52.461,,-718,660,221
17:18:52.471,,-714,660,224
17:18:52.481,,-708,656,223
17:18:52.491,,-703,652,218
17:18:52.501,,-702,653,218
17:18:52.511,,-706,653,212
17:18:52.521,,-706,657,211
17:18:52.531,,-706,656,214
17:18:52.541,,-707,660,218
17:18:52.551,,-709,662,218
17:18:52.561,,-710,663,213
17:18:52.571,,-706,662,214
17:18:52.581,,-706,660,212
17:18:52.591,,-701,657,211
17:18:52.601,,-703,660,215
17:18:52.611,,-703,663,217
17:18:52.621,,-701,661,216
17:18:52.631,,-701,663,217
17:18:52.641,,-705,667,219
17:18:52.651,,-704,668,217
17:18:52.661,,-705,669,219
17:18:52.671,,-703,666,224
17:18:52.681,,-701,664,227
17:18:52.691,,-700,663,225
17:18:52.701,,-700,663,226
17:18:52.711,,-701,662,221
17:18:52.721,,-705,664,221
17:18:52.731,,-706,666,218
17:18:52.741,,-707,667,214
17:18:52.751,,-706,667,217
17:18:52.761,,-708,660,221
17:18:52.771,,-706,661,216
17:18:52.781,,-708,661,212
17:18:52.791,,-707,664,213
17:18:52.801,,-707,663,214
17:18:52.811,,-705,664,216
17:18:52.821,,-706,665,221
17:18:52.831,,-704,661,221
17:18:52.841,,-700,659,221
17:18:52.851,,-698,656,221
17:18:52.861,,-700,656,221
17:18:52.871,,-703,658,222
17:18:52.881,,-705,662,221
17:18:52.891,,-707,663,221
17:18:52.901,,-706,663,219
17:18:52.911,,-703,661,219
17:18:52.921,,-702,660,220
17:18:52.931,,-702,661,217
17:18:53.052,,-694,669,226
17:18:53.054,,-694,669,226
17:18:53.055,,-693,670,229
17:18:53.056,,-693,670,229
17:18:53.058,,-693,670,229
17:18:53.059,,-693,670,229
17:18:53.060,,-693,670,229
17:18:53.062,,-693,670,229
17:18:53.063,,-693,670,229
17:18:53.064,,-691,666,228
17:18:53.066,,-691,666,228
17:18:53.067,,-691,666,228
17:18:53.069,,-691,666,228
17:18:53.071,,-691,666,228
17:18:53.081,,-693,667,225
17:18:53.091,,-695,669,220
17:18:53.101,,-698,671,223
17:18:53.111,,-697,669,227
17:18:53.121,,-695,667,230
17:18:53.131,,-693,667,232
17:18:53.141,,-694,667,231
17:18:53.151,,-696,669,231
17:18:53.161,,-694,668,231
17:18:53.171,,-692,661,230
17:18:53.181,,-690,658,226
17:18:53.191,,-690,658,225
17:18:53.201,,-693,661,224
17:18:53.211,,-702,668,225
17:18:53.221,,-703,672,234
17:18:53.231,,-700,668,240
17:18:53.241,,-698,665,236
17:18:53.251,,-695,665,226
17:18:53.261,,-697,668,221
17:18:53.271,,-699,670,219
17:18:53.281,,-699,672,220
17:18:53.291,,-698,673,223
17:18:53.301,,-695,669,224
17:18:53.311,,-689,661,228
17:18:53.321,,-687,659,238
17:18:53.331,,-690,663,243
17:18:53.341,,-700,670,241
17:18:53.351,,-705,677,224
17:18:53.361,,-712,691,213
17:18:53.371,,-710,694,206
17:18:53.381,,-705,692,205
17:18:53.391,,-697,690,214
17:18:53.401,,-699,689,221
17:18:53.411,,-696,694,226
17:18:53.421,,-706,689,220
17:18:53.431,,-703,698,224
17:18:53.441,,-700,697,217
17:18:53.451,,-696,693,212
17:18:53.461,,-689,688,208
17:18:53.471,,-678,687,208
17:18:53.481,,-673,677,207
17:18:53.491,,-650,671,202
17:18:53.501,,-645,673,202
17:18:53.511,,-648,675,203
17:18:53.521,,-649,677,201
17:18:53.531,,-643,674,202
17:18:53.541,,-642,671,199
17:18:53.551,,-651,677,196
17:18:53.561,,-660,682,192
17:18:53.571,,-665,686,195
17:18:53.581,,-675,697,205
17:18:53.591,,-681,700,208
17:18:53.601,,-679,704,207
17:18:53.611,,-674,700,201
17:18:53.621,,-668,697,199
17:18:53.631,,-662,694,196
17:18:53.641,,-666,698,197
17:18:53.651,,-667,700,198
17:18:53.661,,-660,696,200
17:18:53.671,,-663,700,206
17:18:53.681,,-659,698,209
17:18:53.691,,-657,697,197
17:18:53.701,,-663,701,190
17:18:53.711,,-651,700,196
17:18:53.721,,-659,697,221
17:18:53.731,,-672,689,240
17:18:53.741,,-686,686,249
17:18:53.751,,-702,690,235
17:18:53.761,,-699,688,226
17:18:53.771,,-706,692,227
17:18:53.781,,-706,695,228
17:18:53.791,,-702,696,236
17:18:53.801,,-697,693,244
17:18:53.811,,-691,689,243
17:18:53.821,,-685,690,239
17:18:53.831,,-680,688,236
17:18:53.841,,-676,687,231
17:18:53.851,,-673,690,228
17:18:53.861,,-675,692,226
17:18:53.871,,-678,699,236
17:18:53.881,,-679,699,237
17:18:53.891,,-680,695,235
17:18:53.901,,-680,694,229
17:18:53.911,,-685,697,226
17:18:53.921,,-682,692,224
17:18:53.931,,-688,694,230
17:18:53.941,,-690,689,233
17:18:53.951,,-687,683,236
17:18:53.961,,-693,679,233
17:18:53.971,,-697,677,223
17:18:53.981,,-700,677,222
17:18:53.991,,-701,674,221
17:18:54.001,,-700,675,216
17:18:54.011,,-700,678,218
17:18:54.021,,-699,683,224
17:18:54.031,,-697,684,226
17:18:54.041,,-688,681,228
17:18:54.051,,-680,677,229
17:18:54.061,,-675,675,222
17:18:54.071,,-675,676,219
17:18:54.081,,-679,678,222
17:18:54.091,,-682,680,221
17:18:54.101,,-682,683,219
17:18:54.111,,-683,685,213
17:18:54.121,,-683,686,204
17:18:54.131,,-679,687,202
17:18:54.141,,-680,688,200
17:18:54.151,,-683,689,201
17:18:54.161,,-682,686,202
17:18:54.171,,-683,683,200
17:18:54.181,,-684,683,196
17:18:54.191,,-683,680,194
17:18:54.201,,-686,686,193
17:18:54.211,,-690,689,193
17:18:54.221,,-689,686,196
17:18:54.231,,-683,684,196
17:18:54.241,,-681,682,195
17:18:54.251,,-684,686,189
17:18:54.261,,-686,687,192
17:18:54.271,,-684,686,194
17:18:54.281,,-684,685,196
17:18:54.291,,-684,682,195
17:18:54.301,,-687,684,198
17:18:54.311,,-688,683,197
17:18:54.321,,-688,685,200
17:18:54.331,,-688,687,200
17:18:54.341,,-690,688,196
17:18:54.351,,-690,688,192
17:18:54.361,,-691,690,189
17:18:54.371,,-692,691,189
17:18:54.381,,-693,690,195
17:18:54.391,,-689,683,193
17:18:54.401,,-683,683,199
17:18:54.411,,-682,684,199
17:18:54.421,,-686,687,195
17:18:54.431,,-687,688,200
17:18:54.441,,-683,683,202
17:18:54.568,,-682,683,204
17:18:54.569,,-682,683,204
17:18:54.570,,-682,683,204
17:18:54.572,,-682,683,204
17:18:54.573,,-682,683,204
17:18:54.574,,-682,683,204
17:18:54.576,,-682,688,207
17:18:54.577,,-683,688,207
17:18:54.578,,-683,688,207
17:18:54.580,,-683,688,207
17:18:54.581,,-683,688,207
17:18:54.583,,-683,688,207
17:18:54.584,,-683,688,207
17:18:54.585,,-686,689,212
17:18:54.591,,-686,689,212
17:18:54.601,,-684,686,217
17:18:54.611,,-677,680,219
17:18:54.621,,-675,680,221
17:18:54.631,,-678,684,223
17:18:54.641,,-677,684,223
17:18:54.651,,-673,681,221
17:18:54.661,,-669,678,218
17:18:54.671,,-670,677,215
17:18:54.681,,-677,679,211
17:18:54.691,,-679,680,207
17:18:54.701,,-681,679,205
17:18:54.711,,-678,677,206
17:18:54.721,,-680,680,211
17:18:54.731,,-683,683,214
17:18:54.741,,-678,682,214
17:18:54.751,,-676,683,213
17:18:54.761,,-678,685,213
17:18:54.771,,-675,684,210
17:18:54.781,,-677,684,211
17:18:54.791,,-678,685,214
17:18:54.801,,-678,683,218
17:18:54.811,,-677,683,219
17:18:54.821,,-679,683,221
17:18:54.831,,-677,682,222
17:18:54.841,,-679,685,223
17:18:54.851,,-681,687,223
17:18:54.861,,-678,688,224
17:18:54.871,,-674,687,223
17:18:54.881,,-675,688,223
17:18:54.891,,-676,692,221
17:18:54.901,,-678,693,219
17:18:54.911,,-679,694,223
17:18:54.921,,-676,691,224
17:18:54.931,,-676,692,223
17:18:54.941,,-677,692,222
17:18:54.951,,-678,692,221
17:18:54.961,,-676,692,221
17:18:54.971,,-675,690,221
17:18:54.981,,-671,688,224
17:18:54.991,,-670,689,227
17:18:55.001,,-673,693,227
17:18:55.011,,-673,693,223
17:18:55.021,,-674,697,225
17:18:55.031,,-675,699,224
17:18:55.041,,-676,697,222
17:18:55.051,,-672,696,222
17:18:55.061,,-676,698,221
17:18:55.071,,-674,699,225
17:18:55.081,,-671,698,228
17:18:55.091,,-672,698,233
17:18:55.101,,-676,701,240
17:18:55.111,,-673,700,241
17:18:55.121,,-669,698,239
17:18:55.131,,-667,696,237
17:18:55.141,,-670,694,236
17:18:55.151,,-670,695,232
17:18:55.161,,-669,694,232
17:18:55.171,,-671,698,233
17:18:55.181,,-671,698,233
17:18:55.191,,-667,696,235
17:18:55.201,,-666,693,238
17:18:55.211,,-671,696,238
17:18:55.221,,-676,704,239
17:18:55.231,,-675,706,237
17:18:55.241,,-672,706,237
17:18:55.251,,-671,705,238
17:18:55.261,,-669,699,241
17:18:55.271,,-668,697,247
17:18:55.281,,-671,701,243
17:18:55.291,,-671,702,244
17:18:55.301,,-669,698,245
17:18:55.311,,-668,698,247
17:18:55.321,,-666,696,248
17:18:55.331,,-668,698,247
17:18:55.341,,-668,699,247
17:18:55.351,,-669,698,246
17:18:55.361,,-668,699,242
17:18:55.371,,-670,698,241
17:18:55.381,,-668,695,243
17:18:55.391,,-663,693,244
17:18:55.401,,-662,696,249
17:18:55.411,,-661,697,250
17:18:55.421,,-663,697,247
17:18:55.431,,-662,696,246
17:18:55.441,,-664,697,249
17:18:55.451,,-665,698,249
17:18:55.461,,-666,699,250
17:18:55.471,,-667,699,255
17:18:55.481,,-666,700,256
17:18:55.491,,-666,701,254
17:18:55.501,,-666,701,251
17:18:55.511,,-667,701,249
17:18:55.521,,-666,699,249
17:18:55.531,,-663,695,251
17:18:55.541,,-664,694,251
17:18:55.551,,-670,696,253
17:18:55.561,,-673,699,257
17:18:55.571,,-678,700,257
17:18:55.581,,-680,698,255
17:18:55.591,,-679,693,255
17:18:55.601,,-676,689,255
17:18:55.611,,-674,683,257
17:18:55.621,,-669,680,259
17:18:55.631,,-667,677,262
17:18:55.641,,-666,675,265
17:18:55.651,,-664,673,267
17:18:55.661,,-663,671,266
17:18:55.671,,-668,674,259
17:18:55.681,,-674,676,257
17:18:55.691,,-676,679,259
17:18:55.701,,-684,672,262
17:18:55.711,,-682,675,267
17:18:55.721,,-684,675,270
17:18:55.731,,-681,681,274
17:18:55.741,,-689,664,270
17:18:55.751,,-677,668,274
17:18:55.761,,-688,671,281
17:18:55.771,,-676,664,288
17:18:55.781,,-680,670,291
17:18:55.791,,-680,671,299
17:18:55.801,,-676,672,300
17:18:55.811,,-677,671,302
17:18:55.821,,-676,670,302
17:18:55.831,,-677,667,303
17:18:55.841,,-675,663,308
17:18:55.851,,-675,660,314
17:18:55.861,,-677,660,312
17:18:55.871,,-681,660,307
17:18:55.881,,-695,665,308
17:18:55.891,,-695,659,307
17:18:55.901,,-700,658,309
17:18:55.911,,-698,654,309
17:18:55.921,,-685,638,298
17:18:55.931,,-681,633,294
17:18:55.941,,-680,635,294
17:18:55.951,,-679,637,302
17:18:55.961,,-677,639,312
17:18:56.082,,-677,685,293
17:18:56.083,,-677,685,293
17:18:56.084,,-677,685,293
17:18:56.086,,-677,685,293
17:18:56.087,,-677,685,293
17:18:56.088,,-685,690,282
17:18:56.090,,-685,690,282
17:18:56.091,,-685,690,282
17:18:56.092,,-685,690,282
17:18:56.094,,-685,690,282
17:18:56.095,,-685,690,282
17:18:56.097,,-685,690,282
17:18:56.098,,-694,692,271
17:18:56.101,,-694,692,271
17:18:56.111,,-697,691,262
17:18:56.121,,-706,692,259
17:18:56.131,,-708,690,256
17:18:56.141,,-705,684,251
17:18:56.151,,-702,685,241
17:18:56.161,,-702,684,236
17:18:56.171,,-703,681,235
17:18:56.181,,-702,669,234
17:18:56.191,,-700,665,230
17:18:56.201,,-704,663,229
17:18:56.211,,-705,660,224
17:18:56.221,,-698,655,217
17:18:56.231,,-690,655,213
17:18:56.241,,-687,656,214
17:18:56.251,,-686,660,214
17:18:56.261,,-688,669,217
17:18:56.271,,-687,672,216
17:18:56.281,,-688,677,215
17:18:56.291,,-692,680,211
17:18:56.301,,-691,674,202
17:18:56.311,,-689,669,198
17:18:56.321,,-688,666,198
17:18:56.331,,-687,669,198
17:18:56.341,,-690,665,191
17:18:56.351,,-689,670,193
17:18:56.361,,-682,670,195
17:18:56.371,,-677,667,196
17:18:56.381,,-677,669,195
17:18:56.391,,-675,670,191
17:18:56.401,,-674,672,189
17:18:56.411,,-672,673,191
17:18:56.421,,-673,672,191
17:18:56.431,,-685,679,189
17:18:56.441,,-687,681,187
17:18:56.451,,-688,679,183
17:18:56.461,,-689,678,177
17:18:56.471,,-692,680,177
17:18:56.481,,-689,679,178
17:18:56.491,,-691,683,179
17:18:56.501,,-693,686,180
17:18:56.511,,-689,689,184
17:18:56.521,,-683,690,185
17:18:56.531,,-678,692,185
17:18:56.541,,-671,694,182
17:18:56.551,,-669,697,186
17:18:56.561,,-671,705,191
17:18:56.571,,-673,708,190
17:18:56.581,,-678,708,189
17:18:56.591,,-680,705,190
17:18:56.601,,-680,706,187
17:18:56.611,,-681,704,181
17:18:56.621,,-679,700,182
17:18:56.631,,-680,701,184
17:18:56.641,,-684,702,178
17:18:56.651,,-688,705,175
17:18:56.661,,-686,702,174
17:18:56.671,,-685,703,178
17:18:56.681,,-683,704,179
17:18:56.691,,-678,699,177
17:18:56.701,,-680,699,173
17:18:56.711,,-682,699,170
17:18:56.721,,-684,700,168
17:18:56.731,,-687,702,168
17:18:56.741,,-690,704,169
17:18:56.751,,-691,704,170
17:18:56.761,,-691,704,171
17:18:56.771,,-687,700,168
17:18:56.781,,-685,697,165
17:18:56.791,,-686,697,160
17:18:56.801,,-689,698,158
17:18:56.811,,-691,700,154
17:18:56.821,,-686,703,152
17:18:56.831,,-688,702,149
17:18:56.841,,-686,700,146
17:18:56.851,,-685,701,144
17:18:56.861,,-683,700,146
17:18:56.871,,-683,697,147
17:18:56.881,,-685,697,148
17:18:56.891,,-687,698,148
17:18:56.901,,-689,698,151
17:18:56.911,,-689,700,154
17:18:56.921,,-691,701,155
17:18:56.931,,-692,703,150
17:18:56.941,,-692,701,151
17:18:56.951,,-693,699,151
17:18:56.961,,-694,701,154
17:18:56.971,,-696,701,155
17:18:56.981,,-696,700,156
17:18:56.991,,-693,698,159
17:18:57.001,,-689,696,158
17:18:57.011,,-687,694,156
17:18:57.021,,-685,695,155
17:18:57.031,,-687,696,150
17:18:57.041,,-690,701,148
17:18:57.051,,-694,701,146
17:18:57.061,,-695,700,149
17:18:57.071,,-694,698,153
17:18:57.081,,-692,698,156
17:18:57.091,,-692,698,160
17:18:57.101,,-689,698,158
17:18:57.111,,-685,695,155
17:18:57.121,,-683,693,155
17:18:57.131,,-683,691,159
17:18:57.141,,-683,696,165
17:18:57.151,,-687,696,167
17:18:57.161,,-693,696,168
17:18:57.171,,-691,696,166
17:18:57.181,,-689,694,166
17:18:57.191,,-689,695,165
17:18:57.201,,-694,702,173
17:18:57.211,,-698,705,175
17:18:57.221,,-698,704,171
17:18:57.231,,-699,701,168
17:18:57.241,,-698,698,163
17:18:57.251,,-694,691,160
17:18:57.261,,-692,686,158
17:18:57.271,,-690,683,156
17:18:57.281,,-687,682,156
17:18:57.291,,-687,681,156
17:18:57.301,,-687,684,156
17:18:57.311,,-689,688,157
17:18:57.321,,-691,693,155
17:18:57.331,,-695,693,150
17:18:57.341,,-695,691,150
17:18:57.351,,-696,688,146
17:18:57.361,,-697,684,142
17:18:57.371,,-699,685,145
17:18:57.381,,-700,685,147
17:18:57.391,,-699,685,149
17:18:57.401,,-695,683,155
17:18:57.411,,-691,681,159
17:18:57.421,,-690,683,160
17:18:57.431,,-691,688,160
17:18:57.441,,-692,691,160
17:18:57.451,,-690,689,160
17:18:57.461,,-691,689,164
17:18:57.471,,-695,689,166
17:18:57.481,,-700,689,164
17:18:57.607,,-698,685,163
17:18:57.609,,-694,681,160
17:18:57.610,,-694,681,160
17:18:57.612,,-694,681,160
17:18:57.613,,-694,681,160
17:18:57.614,,-694,681,160
17:18:57.616,,-694,681,160
17:18:57.617,,-694,681,160
17:18:57.618,,-692,680,160
17:18:57.620,,-692,680,160
17:18:57.621,,-692,680,160
17:18:57.622,,-692,680,160
17:18:57.624,,-692,680,160
17:18:57.625,,-692,680,160
17:18:57.631,,-692,683,165
17:18:57.641,,-697,687,165
17:18:57.651,,-698,689,165
17:18:57.661,,-701,693,164
17:18:57.671,,-703,691,161
17:18:57.681,,-702,689,160
17:18:57.691,,-700,688,161
17:18:57.701,,-700,688,164
17:18:57.711,,-699,688,175
17:18:57.721,,-699,689,175
17:18:57.731,,-700,690,174
17:18:57.741,,-699,690,174
17:18:57.751,,-699,686,175
17:18:57.761,,-696,681,175
17:18:57.771,,-696,678,175
17:18:57.781,,-698,677,171
17:18:57.791,,-704,680,164
17:18:57.801,,-704,681,162
17:18:57.811,,-704,679,162
17:18:57.821,,-703,678,162
17:18:57.831,,-704,678,165
17:18:57.841,,-705,683,165
17:18:57.851,,-701,683,167
17:18:57.861,,-699,684,169
17:18:57.871,,-698,685,169
17:18:57.881,,-698,686,170
17:18:57.891,,-698,688,171
17:18:57.901,,-696,689,172
17:18:57.911,,-696,688,171
17:18:57.921,,-696,688,172
17:18:57.931,,-694,688,171
17:18:57.941,,-696,690,173
17:18:57.951,,-696,690,177
17:18:57.961,,-695,689,179
17:18:57.971,,-698,692,176
17:18:57.981,,-696,690,175
17:18:57.991,,-694,690,176
17:18:58.001,,-692,691,176
17:18:58.011,,-690,689,180
17:18:58.021,,-687,688,186
17:18:58.031,,-686,687,188
17:18:58.041,,-684,686,186
17:18:58.051,,-683,684,182
17:18:58.061,,-683,683,182
17:18:58.071,,-683,683,182
17:18:58.081,,-686,683,177
17:18:58.091,,-690,684,177
17:18:58.101,,-699,688,175
17:18:58.111,,-697,685,173
17:18:58.121,,-693,682,175
17:18:58.131,,-690,683,178
17:18:58.141,,-690,688,180
17:18:58.151,,-691,691,185
17:18:58.161,,-687,692,189
17:18:58.171,,-683,691,189
17:18:58.181,,-681,691,189
17:18:58.191,,-683,691,187
17:18:58.201,,-685,692,183
17:18:58.211,,-686,690,184
17:18:58.221,,-688,690,193
17:18:58.231,,-695,689,191
17:18:58.241,,-693,687,186
17:18:58.251,,-689,686,184
17:18:58.261,,-688,685,185
17:18:58.271,,-688,686,184
17:18:58.281,,-687,686,186
17:18:58.291,,-685,687,185
17:18:58.301,,-681,688,185
17:18:58.311,,-682,689,187
17:18:58.321,,-684,690,182
17:18:58.331,,-688,692,182
17:18:58.341,,-690,692,182
17:18:58.351,,-693,694,186
17:18:58.361,,-699,696,182
17:18:58.371,,-697,696,183
17:18:58.381,,-692,692,186
17:18:58.391,,-687,689,189
17:18:58.401,,-681,684,191
17:18:58.411,,-678,682,191
17:18:58.421,,-677,683,194
17:18:58.431,,-679,685,197
17:18:58.441,,-682,685,200
17:18:58.451,,-686,687,199
17:18:58.461,,-689,691,196
17:18:58.471,,-694,693,196
17:18:58.481,,-693,692,193
17:18:58.491,,-689,690,194
17:18:58.501,,-686,687,195
17:18:58.511,,-687,688,196
17:18:58.521,,-685,687,194
17:18:58.531,,-681,687,196
17:18:58.541,,-677,684,200
17:18:58.551,,-678,685,201
17:18:58.561,,-679,686,201
17:18:58.571,,-678,687,199
17:18:58.581,,-679,688,198
17:18:58.591,,-680,691,202
17:18:58.601,,-681,692,201
17:18:58.611,,-679,690,206
17:18:58.621,,-679,689,204
17:18:58.631,,-680,690,200
17:18:58.641,,-681,691,202
17:18:58.651,,-683,693,202
17:18:58.661,,-685,694,203
17:18:58.671,,-681,693,206
17:18:58.681,,-679,693,209
17:18:58.691,,-678,694,207
17:18:58.701,,-679,696,207
17:18:58.711,,-681,696,206
17:18:58.721,,-683,694,206
17:18:58.731,,-681,690,208
17:18:58.741,,-680,689,213
17:18:58.751,,-682,689,211
17:18:58.761,,-682,691,213
17:18:58.771,,-682,691,214
17:18:58.781,,-684,692,215
17:18:58.791,,-684,694,215
17:18:58.801,,-681,693,214
17:18:58.811,,-678,689,213
17:18:58.821,,-676,685,212
17:18:58.831,,-675,685,209
17:18:58.841,,-674,687,208
17:18:58.851,,-676,688,212
17:18:58.861,,-678,690,214
17:18:58.871,,-680,686,213
17:18:58.881,,-680,686,216
17:18:58.891,,-679,683,214
17:18:58.901,,-683,687,213
17:18:58.911,,-685,690,212
17:18:58.921,,-684,690,213
17:18:58.931,,-683,690,215
17:18:58.941,,-681,690,218
17:18:58.951,,-678,689,221
17:18:58.961,,-676,688,222
17:18:58.971,,-675,689,224
17:18:58.981,,-677,689,225
17:18:58.991,,-677,689,226
17:18:59.112,,-680,692,228
17:18:59.113,,-680,692,228
17:18:59.115,,-680,692,228
17:18:59.116,,-680,692,228
17:18:59.117,,-680,692,228
17:18:59.119,,-680,692,228
17:18:59.120,,-680,692,228
17:18:59.121,,-675,699,221
17:18:59.123,,-675,699,221
17:18:59.124,,-675,699,221
17:18:59.125,,-675,699,221
17:18:59.127,,-675,699,221
17:18:59.128,,-675,699,221
17:18:59.131,,-672,698,221
17:18:59.141,,-682,696,229
17:18:59.151,,-680,682,224
17:18:59.161,,-673,688,233
17:18:59.171,,-675,684,230
17:18:59.181,,-678,686,233
17:18:59.191,,-676,684,232
17:18:59.201,,-678,685,231
17:18:59.211,,-679,686,229
17:18:59.221,,-677,685,233
17:18:59.231,,-674,682,233
17:18:59.241,,-675,681,232
17:18:59.251,,-678,686,236
17:18:59.261,,-676,685,236
17:18:59.271,,-676,686,237
17:18:59.281,,-675,683,237
17:18:59.291,,-675,683,237
17:18:59.301,,-675,685,236
17:18:59.311,,-675,683,238
17:18:59.321,,-673,681,241
17:18:59.331,,-672,681,242
17:18:59.341,,-672,683,241
17:18:59.351,,-674,685,239
17:18:59.361,,-672,683,239
17:18:59.371,,-669,681,242
17:18:59.381,,-672,683,242
17:18:59.391,,-673,684,241
17:18:59.401,,-673,685,243
17:18:59.411,,-672,685,242
17:18:59.421,,-675,685,244
17:18:59.431,,-672,685,243
17:18:59.441,,-672,683,245
17:18:59.451,,-673,684,245
17:18:59.461,,-673,682,243
17:18:59.471,,-672,681,244
17:18:59.481,,-672,682,239
17:18:59.491,,-672,683,242
17:18:59.501,,-670,681,244
17:18:59.511,,-670,684,245
17:18:59.521,,-671,683,244
17:18:59.531,,-670,684,242
17:18:59.541,,-670,684,245
17:18:59.551,,-671,685,245
17:18:59.561,,-674,685,244
17:18:59.571,,-675,687,242
17:18:59.581,,-676,687,242
17:18:59.591,,-675,686,240
17:18:59.601,,-674,687,242
17:18:59.611,,-673,685,246
17:18:59.621,,-674,687,245
17:18:59.631,,-674,686,244
17:18:59.641,,-670,679,242
17:18:59.651,,-667,677,242
17:18:59.661,,-667,678,241
17:18:59.671,,-668,681,239
17:18:59.681,,-672,685,238
17:18:59.691,,-677,686,243
17:18:59.701,,-674,684,243
17:18:59.711,,-671,682,241
17:18:59.721,,-673,683,239
17:18:59.731,,-673,688,238
17:18:59.741,,-675,691,243
17:18:59.751,,-674,693,244
17:18:59.761,,-671,691,246
17:18:59.771,,-671,691,245
17:18:59.781,,-669,689,244
17:18:59.791,,-669,690,245
17:18:59.801,,-670,691,247
17:18:59.811,,-671,691,247
17:18:59.821,,-672,690,243
17:18:59.831,,-670,688,242
17:18:59.841,,-669,687,241
17:18:59.851,,-667,686,238
17:18:59.861,,-671,689,235
17:18:59.871,,-674,691,234
17:18:59.881,,-676,691,233
17:18:59.891,,-672,690,234
17:18:59.901,,-670,691,235
17:18:59.911,,-670,693,234
17:18:59.921,,-669,694,234
17:18:59.931,,-667,694,233
17:18:59.941,,-667,695,236
17:18:59.951,,-666,692,238
17:18:59.961,,-667,693,235
17:18:59.971,,-668,694,232
17:18:59.981,,-669,695,232
17:18:59.991,,-670,694,231
17:19:00.000,,-669,692,234
17:19:00.010,,-668,691,235
17:19:00.020,,-671,695,226
17:19:00.030,,-672,695,224
17:19:00.040,,-673,697,223
17:19:00.050,,-673,698,225
17:19:00.060,,-671,697,229
17:19:00.070,,-667,694,229
17:19:00.080,,-667,694,228
17:19:00.090,,-668,695,227
17:19:00.100,,-669,695,228
17:19:00.110,,-670,696,228
17:19:00.120,,-669,696,226
17:19:00.130,,-669,697,223
17:19:00.140,,-670,697,223
17:19:00.150,,-672,697,217
17:19:00.160,,-671,698,218
17:19:00.170,,-670,696,216
17:19:00.180,,-670,696,216
17:19:00.190,,-667,695,214
17:19:00.200,,-669,696,216
17:19:00.210,,-670,698,215
17:19:00.220,,-672,697,216
17:19:00.230,,-671,697,216
17:19:00.240,,-670,697,215
17:19:00.250,,-670,696,214
17:19:00.260,,-670,698,215
17:19:00.270,,-668,700,217
17:19:00.280,,-668,698,220
17:19:00.290,,-671,698,217
17:19:00.300,,-669,697,217
17:19:00.310,,-670,697,216
17:19:00.320,,-671,696,214
17:19:00.330,,-674,698,215
17:19:00.340,,-674,700,215
17:19:00.350,,-676,702,214
17:19:00.360,,-674,702,214
17:19:00.370,,-672,701,212
17:19:00.380,,-671,699,213
17:19:00.390,,-674,700,212
17:19:00.400,,-673,702,211
17:19:00.410,,-671,697,211
17:19:00.420,,-669,695,214
17:19:00.430,,-667,693,209
17:19:00.440,,-666,692,206
17:19:00.450,,-667,693,208
17:19:00.460,,-669,697,207
17:19:00.470,,-672,700,204
17:19:00.480,,-670,701,209
17:19:00.490,,-670,702,213
17:19:00.500,,-672,706,218
17:19:00.510,,-675,709,217
17:19:00.637,,-675,708,202
17:19:00.639,,-675,708,202
17:19:00.640,,-675,708,202
17:19:00.642,,-675,708,197
17:19:00.643,,-670,706,197
17:19:00.644,,-670,706,197
17:19:00.646,,-670,706,197
17:19:00.647,,-670,706,197
17:19:00.648,,-670,706,197
17:19:00.650,,-670,706,197
17:19:00.651,,-670,704,198
17:19:00.652,,-665,704,198
17:19:00.654,,-665,704,198
17:19:00.655,,-665,704,198
17:19:00.660,,-661,704,204
17:19:00.670,,-662,707,207
17:19:00.680,,-663,709,206
17:19:00.690,,-660,708,203
17:19:00.700,,-659,706,202
17:19:00.710,,-659,709,201
17:19:00.720,,-662,712,196
17:19:00.730,,-663,714,190
17:19:00.740,,-664,713,189
17:19:00.750,,-661,709,186
17:19:00.760,,-659,707,184
17:19:00.770,,-658,707,183
17:19:00.780,,-661,712,181
17:19:00.790,,-669,721,178
17:19:00.800,,-667,726,175
17:19:00.810,,-667,727,172
17:19:00.820,,-663,724,170
17:19:00.830,,-656,720,165
17:19:00.840,,-650,718,167
17:19:00.850,,-647,716,171
17:19:00.860,,-643,715,177
17:19:00.870,,-639,713,173
17:19:00.880,,-640,716,167
17:19:00.890,,-642,719,166
17:19:00.900,,-642,720,165
17:19:00.910,,-644,725,163
17:19:00.920,,-653,733,161
17:19:00.930,,-658,739,165
17:19:00.940,,-670,743,163
17:19:00.950,,-680,745,160
17:19:00.960,,-692,744,155
17:19:00.970,,-693,739,147
17:19:00.980,,-690,731,141
17:19:00.990,,-678,722,143
17:19:01.000,,-663,711,146
17:19:01.010,,-654,706,151
17:19:01.020,,-644,705,160
17:19:01.030,,-637,705,166
17:19:01.040,,-632,708,168
17:19:01.050,,-636,723,167
17:19:01.060,,-643,730,163
17:19:01.070,,-654,735,159
17:19:01.080,,-659,739,161
17:19:01.090,,-664,737,165
17:19:01.100,,-667,739,165
17:19:01.110,,-666,742,165
17:19:01.120,,-661,742,165
17:19:01.130,,-654,738,165
17:19:01.140,,-644,739,164
17:19:01.150,,-643,744,162
17:19:01.160,,-642,746,166
17:19:01.170,,-649,750,166
17:19:01.180,,-672,755,163
17:19:01.190,,-685,754,162
17:19:01.200,,-688,749,168
17:19:01.210,,-691,745,173
17:19:01.220,,-686,733,177
17:19:01.230,,-676,720,180
17:19:01.240,,-673,714,181
17:19:01.250,,-669,709,182
17:19:01.260,,-665,703,187
17:19:01.270,,-663,702,193
17:19:01.280,,-670,702,196
17:19:01.290,,-674,700,197
17:19:01.300,,-675,684,200
17:19:01.310,,-684,679,199
17:19:01.320,,-692,681,199
17:19:01.330,,-699,682,194
17:19:01.340,,-703,682,188
17:19:01.350,,-708,682,186
17:19:01.360,,-710,681,187
17:19:01.370,,-706,679,192
17:19:01.380,,-703,674,197
17:19:01.390,,-701,673,205
17:19:01.400,,-695,668,210
17:19:01.410,,-690,662,215
17:19:01.420,,-687,661,214
17:19:01.430,,-693,667,219
17:19:01.440,,-693,665,216
17:19:01.450,,-693,661,212
17:19:01.460,,-692,658,207
17:19:01.470,,-695,657,207
17:19:01.480,,-699,660,206
17:19:01.490,,-705,661,210
17:19:01.500,,-706,659,213
17:19:01.510,,-704,656,217
17:19:01.520,,-699,653,222
17:19:01.530,,-693,653,228
17:19:01.540,,-692,655,230
17:19:01.550,,-693,659,230
17:19:01.560,,-696,670,229
17:19:01.570,,-695,669,229
17:19:01.580,,-692,668,231
17:19:01.590,,-693,669,230
17:19:01.600,,-698,669,231
17:19:01.610,,-696,665,230
17:19:01.620,,-698,663,230
17:19:01.630,,-702,662,230
17:19:01.640,,-705,664,232
17:19:01.650,,-705,662,232
17:19:01.660,,-703,662,233
17:19:01.670,,-700,659,234
17:19:01.680,,-699,659,237
17:19:01.690,,-690,650,235
17:19:01.700,,-690,650,237
17:19:01.710,,-693,654,240
17:19:01.720,,-695,655,245
17:19:01.730,,-696,656,244
17:19:01.740,,-699,659,244
17:19:01.750,,-701,658,244
17:19:01.760,,-702,658,243
17:19:01.770,,-701,660,241
17:19:01.780,,-702,660,240
17:19:01.790,,-699,661,243
17:19:01.800,,-696,663,243
17:19:01.810,,-694,666,249
17:19:01.820,,-685,667,250
17:19:01.830,,-685,669,254
17:19:01.840,,-682,670,254
17:19:01.850,,-684,671,251
17:19:01.860,,-680,669,250
17:19:01.870,,-683,670,251
17:19:01.880,,-688,671,253
17:19:01.890,,-687,670,253
17:19:01.900,,-683,670,251
17:19:01.910,,-681,669,248
17:19:01.920,,-678,667,249
17:19:01.930,,-673,664,246
17:19:01.940,,-676,673,246
17:19:01.950,,-686,675,246
17:19:01.960,,-688,674,247
17:19:01.970,,-690,672,247
17:19:01.980,,-691,673,243
17:19:01.990,,-691,674,243
17:19:02.000,,-685,672,247
17:19:02.010,,-677,668,254
17:19:02.020,,-674,670,256
17:19:02.030,,-678,677,256
17:19:02.152,,-669,673,252
17:19:02.154,,-669,673,252
17:19:02.155,,-665,672,252
17:19:02.156,,-665,672,252
17:19:02.158,,-665,672,252
17:19:02.159,,-665,672,252
17:19:02.160,,-665,672,252
17:19:02.162,,-665,672,252
17:19:02.163,,-666,676,252
17:19:02.164,,-666,676,252
17:19:02.166,,-666,676,252
17:19:02.167,,-666,676,252
17:19:02.169,,-666,676,252
17:19:02.170,,-666,676,252
17:19:02.180,,-667,679,248
17:19:02.190,,-669,682,249
17:19:02.200,,-671,688,255
17:19:02.210,,-671,688,255
17:19:02.220,,-674,691,257
17:19:02.230,,-675,691,254
17:19:02.240,,-673,689,254
17:19:02.250,,-673,690,251
17:19:02.260,,-671,687,251
17:19:02.270,,-667,684,251
17:19:02.280,,-668,684,253
17:19:02.290,,-669,685,255
17:19:02.300,,-669,687,258
17:19:02.310,,-672,691,255
17:19:02.320,,-675,693,253
17:19:02.330,,-673,694,254
17:19:02.340,,-668,691,252
17:19:02.350,,-663,690,252
17:19:02.360,,-665,683,249
17:19:02.370,,-666,689,251
17:19:02.380,,-667,690,253
17:19:02.390,,-669,691,251
17:19:02.400,,-668,689,247
17:19:02.410,,-666,689,248
17:19:02.420,,-666,687,246
17:19:02.430,,-667,689,247
17:19:02.440,,-669,692,251
17:19:02.450,,-669,693,244
17:19:02.460,,-667,694,246
17:19:02.470,,-665,693,249
17:19:02.480,,-665,693,252
17:19:02.490,,-664,694,253
17:19:02.500,,-664,695,253
17:19:02.510,,-664,695,253
17:19:02.520,,-664,694,252
17:19:02.530,,-665,694,249
17:19:02.540,,-664,695,249
17:19:02.550,,-666,696,251
17:19:02.560,,-665,696,251
17:19:02.570,,-664,697,253
17:19:02.580,,-663,699,254
17:19:02.590,,-664,701,253
17:19:02.600,,-666,701,251
17:19:02.610,,-664,698,252
17:19:02.620,,-661,696,256
17:19:02.630,,-659,695,260
17:19:02.640,,-660,695,256
17:19:02.650,,-659,696,252
17:19:02.660,,-657,695,251
17:19:02.670,,-654,692,251
17:19:02.680,,-652,691,253
17:19:02.690,,-651,691,252
17:19:02.700,,-654,695,251
17:19:02.710,,-659,704,249
17:19:02.720,,-663,701,251
17:19:02.730,,-661,698,251
17:19:02.740,,-663,700,250
17:19:02.750,,-662,702,253
17:19:02.760,,-659,699,255
17:19:02.770,,-654,699,257
17:19:02.780,,-653,700,258
17:19:02.790,,-655,702,258
17:19:02.800,,-658,701,256
17:19:02.810,,-659,701,256
17:19:02.820,,-656,700,255
17:19:02.830,,-659,698,257
17:19:02.840,,-656,693,260
17:19:02.850,,-657,693,261
17:19:02.860,,-662,695,260
17:19:02.870,,-665,697,257
17:19:02.880,,-662,695,253
17:19:02.890,,-663,696,250
17:19:02.900,,-663,698,251
17:19:02.910,,-666,700,251
17:19:02.920,,-667,704,252
17:19:02.930,,-668,710,241
17:19:02.940,,-668,700,250
17:19:02.950,,-652,694,256
17:19:02.960,,-653,689,250
17:19:02.970,,-651,687,250
17:19:02.980,,-652,691,250
17:19:02.990,,-654,692,247
17:19:03.000,,-655,693,246
17:19:03.010,,-658,692,243
17:19:03.020,,-660,693,241
17:19:03.030,,-661,693,243
17:19:03.040,,-662,693,242
17:19:03.050,,-668,696,242
17:19:03.060,,-668,697,244
17:19:03.070,,-669,698,248
17:19:03.080,,-669,697,250
17:19:03.090,,-663,692,250
17:19:03.100,,-660,690,240
17:19:03.110,,-662,691,237
17:19:03.120,,-665,690,235
17:19:03.130,,-666,693,239
17:19:03.140,,-669,694,243
17:19:03.150,,-667,693,243
17:19:03.160,,-667,694,244
17:19:03.170,,-666,695,244
17:19:03.180,,-665,695,244
17:19:03.190,,-663,693,242
17:19:03.200,,-663,693,240
17:19:03.210,,-662,696,240
17:19:03.220,,-664,698,241
17:19:03.230,,-664,700,242
17:19:03.240,,-668,703,243
17:19:03.250,,-666,702,241
17:19:03.260,,-664,699,239
17:19:03.270,,-659,694,240
17:19:03.280,,-658,695,241
17:19:03.290,,-660,695,244
17:19:03.300,,-663,696,243
17:19:03.310,,-663,697,240
17:19:03.320,,-665,699,239
17:19:03.330,,-666,701,242
17:19:03.340,,-667,700,242
17:19:03.350,,-663,694,237
17:19:03.360,,-661,695,235
17:19:03.370,,-665,697,237
17:19:03.380,,-664,697,239
17:19:03.390,,-661,695,237
17:19:03.400,,-659,691,239
17:19:03.410,,-654,688,241
17:19:03.420,,-652,688,239
17:19:03.430,,-658,693,235
17:19:03.440,,-665,700,233
17:19:03.450,,-668,703,231
17:19:03.460,,-667,704,235
17:19:03.470,,-665,700,241
17:19:03.480,,-660,700,234
17:19:03.490,,-662,704,232
17:19:03.500,,-665,706,235
17:19:03.510,,-663,705,240
17:19:03.520,,-657,705,237
17:19:03.530,,-668,696,237
17:19:03.540,,-663,696,242
17:19:03.550,,-666,698,239
17:19:03.677,,-654,699,239
17:19:03.678,,-654,699,239
17:19:03.680,,-654,699,239
17:19:03.681,,-654,699,239
17:19:03.682,,-654,699,239
17:19:03.684,,-654,699,239
17:19:03.685,,-653,698,242
17:19:03.687,,-653,698,242
17:19:03.688,,-653,698,242
17:19:03.689,,-653,698,242
17:19:03.691,,-653,698,242
17:19:03.692,,-653,698,242
17:19:03.693,,-653,702,244
17:19:03.695,,-655,702,244
17:19:03.700,,-655,702,244
17:19:03.710,,-661,704,242
17:19:03.720,,-660,704,240
17:19:03.730,,-658,701,240
17:19:03.740,,-656,699,238
17:19:03.750,,-660,703,237
17:19:03.760,,-663,704,235
17:19:03.770,,-661,704,235
17:19:03.780,,-660,702,238
17:19:03.790,,-658,701,241
17:19:03.800,,-656,700,241
17:19:03.810,,-656,698,238
17:19:03.820,,-658,698,236
17:19:03.830,,-660,696,235
17:19:03.840,,-661,695,234
17:19:03.850,,-663,695,232
17:19:03.860,,-664,694,229
17:19:03.870,,-661,696,233
17:19:03.880,,-653,694,236
17:19:03.890,,-649,691,235
17:19:03.900,,-643,690,245
17:19:03.910,,-653,708,251
17:19:03.920,,-679,726,257
17:19:03.930,,-680,724,262
17:19:03.940,,-664,708,254
17:19:03.950,,-652,694,244
17:19:03.960,,-652,693,243
17:19:03.970,,-655,694,240
17:19:03.980,,-651,693,242
17:19:03.990,,-649,696,242
17:19:04.000,,-653,701,242
17:19:04.010,,-653,701,245
17:19:04.020,,-654,702,246
17:19:04.030,,-658,706,248
17:19:04.040,,-659,704,246
17:19:04.050,,-651,697,243
17:19:04.060,,-650,697,241
17:19:04.070,,-659,704,245
17:19:04.080,,-665,709,243
17:19:04.090,,-664,707,238
17:19:04.100,,-655,702,237
17:19:04.110,,-647,694,235
17:19:04.120,,-645,693,234
17:19:04.130,,-653,699,237
17:19:04.140,,-659,703,243
17:19:04.150,,-661,705,245
17:19:04.160,,-661,706,245
17:19:04.170,,-660,702,244
17:19:04.180,,-655,699,243
17:19:04.190,,-654,699,242
17:19:04.200,,-659,704,243
17:19:04.210,,-661,706,243
17:19:04.220,,-660,706,245
17:19:04.230,,-660,707,244
17:19:04.240,,-660,708,246
17:19:04.250,,-649,701,249
17:19:04.260,,-648,699,248
17:19:04.270,,-648,699,247
17:19:04.280,,-653,699,248
17:19:04.290,,-654,700,247
17:19:04.300,,-654,700,246
17:19:04.310,,-655,702,243
17:19:04.320,,-657,704,242
17:19:04.330,,-656,704,240
17:19:04.340,,-652,701,237
17:19:04.350,,-652,703,236
17:19:04.360,,-654,705,238
17:19:04.370,,-654,707,241
17:19:04.380,,-652,707,242
17:19:04.390,,-648,705,245
17:19:04.400,,-649,706,246
17:19:04.410,,-653,706,246
17:19:04.420,,-653,707,248
17:19:04.430,,-654,704,249
17:19:04.440,,-654,704,249
17:19:04.450,,-652,704,248
17:19:04.460,,-653,705,251
17:19:04.470,,-652,703,254
17:19:04.480,,-653,703,251
17:19:04.490,,-655,705,248
17:19:04.500,,-653,704,243
17:19:04.510,,-655,707,244
17:19:04.520,,-654,706,246
17:19:04.530,,-651,704,247
17:19:04.540,,-650,702,247
17:19:04.550,,-651,702,246
17:19:04.560,,-651,701,245
17:19:04.570,,-652,701,244
17:19:04.580,,-653,701,242
17:19:04.590,,-652,699,242
17:19:04.600,,-651,698,241
17:19:04.610,,-651,700,238
17:19:04.620,,-650,699,236
17:19:04.630,,-647,700,240
17:19:04.640,,-645,695,245
17:19:04.650,,-643,699,247
17:19:04.660,,-659,715,254
17:19:04.670,,-663,714,257
17:19:04.680,,-663,712,251
17:19:04.690,,-654,707,245
17:19:04.700,,-652,704,244
17:19:04.710,,-655,708,243
17:19:04.720,,-657,708,243
17:19:04.730,,-654,707,246
17:19:04.740,,-650,705,248
17:19:04.750,,-645,700,247
17:19:04.760,,-648,705,249
17:19:04.770,,-652,709,248
17:19:04.780,,-656,712,246
17:19:04.790,,-648,706,244
17:19:04.800,,-646,701,251
17:19:04.810,,-642,699,250
17:19:04.820,,-643,702,245
17:19:04.830,,-645,703,243
17:19:04.840,,-651,707,242
17:19:04.850,,-654,708,240
17:19:04.860,,-652,708,244
17:19:04.870,,-653,708,246
17:19:04.880,,-654,706,248
17:19:04.890,,-650,704,248
17:19:04.900,,-650,711,257
17:19:04.910,,-647,707,257
17:19:04.920,,-652,712,250
17:19:04.930,,-653,711,253
17:19:04.940,,-647,704,253
17:19:04.950,,-643,703,254
17:19:04.960,,-647,705,255
17:19:04.970,,-650,707,254
17:19:04.980,,-651,708,252
17:19:04.990,,-651,706,252
17:19:05.000,,-648,702,252
17:19:05.010,,-649,701,252
17:19:05.020,,-651,705,246
17:19:05.030,,-651,703,246
17:19:05.040,,-650,705,246
17:19:05.050,,-651,707,248
17:19:05.060,,-650,707,250
17:19:05.182,,-647,709,258
17:19:05.183,,-647,709,258
17:19:05.184,,-647,709,258
17:19:05.186,,-647,709,258
17:19:05.187,,-647,710,256
17:19:05.188,,-647,710,256
17:19:05.190,,-647,710,256
17:19:05.191,,-647,710,256
17:19:05.193,,-647,710,256
17:19:05.194,,-647,710,256
17:19:05.195,,-647,710,256
17:19:05.197,,-648,712,258
17:19:05.198,,-648,712,258
17:19:05.200,,-648,712,258
17:19:05.210,,-648,710,256
17:19:05.220,,-648,711,255
17:19:05.230,,-645,708,254
17:19:05.240,,-646,709,252
17:19:05.250,,-645,710,252
17:19:05.260,,-643,710,253
17:19:05.270,,-645,710,252
17:19:05.280,,-645,709,256
17:19:05.290,,-643,706,260
17:19:05.300,,-642,705,260
17:19:05.310,,-643,706,257
17:19:05.320,,-647,708,255
17:19:05.330,,-648,709,256
17:19:05.340,,-649,711,258
17:19:05.350,,-647,710,256
17:19:05.360,,-642,708,260
17:19:05.370,,-639,705,259
17:19:05.380,,-642,706,257
17:19:05.390,,-645,708,256
17:19:05.400,,-647,709,253
17:19:05.410,,-647,707,251
17:19:05.420,,-648,708,251
17:19:05.430,,-646,706,253
17:19:05.440,,-645,706,257
17:19:05.450,,-645,706,257
17:19:05.460,,-645,708,258
17:19:05.470,,-645,709,260
17:19:05.480,,-645,709,258
17:19:05.490,,-646,707,254
17:19:05.500,,-646,707,256
17:19:05.510,,-647,706,259
17:19:05.520,,-650,708,255
17:19:05.530,,-648,704,250
17:19:05.540,,-646,701,252
17:19:05.550,,-643,699,253
17:19:05.560,,-644,701,253
17:19:05.570,,-647,706,255
17:19:05.580,,-648,710,255
17:19:05.590,,-651,713,256
17:19:05.600,,-648,712,258
17:19:05.610,,-645,708,256
17:19:05.620,,-643,706,255
17:19:05.630,,-644,703,254
17:19:05.640,,-643,705,256
17:19:05.650,,-643,707,255
17:19:05.660,,-646,711,258
17:19:05.670,,-645,712,261
17:19:05.680,,-643,710,265
17:19:05.690,,-642,707,268
17:19:05.700,,-641,705,262
17:19:05.710,,-643,706,263
17:19:05.720,,-644,704,257
17:19:05.730,,-645,703,258
17:19:05.740,,-646,704,256
17:19:05.750,,-650,705,254
17:19:05.760,,-649,704,253
17:19:05.770,,-647,700,249
17:19:05.780,,-644,699,249
17:19:05.790,,-649,706,250
17:19:05.800,,-653,706,248
17:19:05.810,,-651,704,247
17:19:05.820,,-649,704,246
17:19:05.830,,-647,703,249
17:19:05.840,,-646,703,252
17:19:05.850,,-646,703,255
17:19:05.860,,-646,704,256
17:19:05.870,,-649,708,257
17:19:05.880,,-646,706,255
17:19:05.890,,-646,703,255
17:19:05.900,,-646,703,254
17:19:05.910,,-648,707,255
17:19:05.920,,-651,707,255
17:19:05.930,,-652,707,254
17:19:05.940,,-650,705,253
17:19:05.950,,-651,705,254
17:19:05.960,,-649,703,252
17:19:05.970,,-648,702,252
17:19:05.980,,-645,700,253
17:19:05.990,,-646,703,254
17:19:06.000,,-646,702,250
17:19:06.010,,-647,702,248
17:19:06.020,,-652,707,252
17:19:06.030,,-653,706,252
17:19:06.040,,-656,709,248
17:19:06.050,,-654,705,252
17:19:06.060,,-652,702,251
17:19:06.070,,-652,703,248
17:19:06.080,,-653,705,246
17:19:06.090,,-653,704,245
17:19:06.100,,-654,703,250
17:19:06.110,,-657,705,250
17:19:06.120,,-658,706,246
17:19:06.130,,-658,706,243
17:19:06.140,,-656,703,243
17:19:06.150,,-657,701,243
17:19:06.160,,-660,703,243
17:19:06.170,,-661,702,241
17:19:06.180,,-656,700,242
17:19:06.190,,-657,701,241
17:19:06.200,,-659,703,239
17:19:06.210,,-661,706,240
17:19:06.220,,-668,707,238
17:19:06.230,,-661,702,237
17:19:06.240,,-662,700,238
17:19:06.250,,-665,702,241
17:19:06.260,,-663,702,241
17:19:06.270,,-661,701,243
17:19:06.280,,-659,700,243
17:19:06.290,,-658,699,243
17:19:06.300,,-655,694,239
17:19:06.310,,-655,696,237
17:19:06.320,,-661,701,236
