Sensors' Acquisition [Hz]: Acc@104.0 
hh:mm:ss.ms, Annotation , AccX [mg], AccY, AccZ
12:45:12.347,,1000,-8,16
12:45:12.357,,1001,-8,17
12:45:12.367,,1000,-8,17
12:45:12.377,,1000,-9,17
12:45:12.387,,999,-9,16
12:45:12.397,,999,-10,17
12:45:12.407,,1000,-9,17
12:45:12.417,,1001,-9,18
12:45:12.427,,1000,-9,18
12:45:12.437,>Stationary,,,
12:45:12.439,,1000,-8,16
12:45:12.447,,999,-8,18
12:45:12.457,,999,-9,17
12:45:12.467,,1000,-9,18
12:45:12.477,,1001,-8,17
12:45:12.487,,1000,-9,18
12:45:12.497,,999,-8,18
12:45:12.507,,1000,-9,17
12:45:12.517,,1000,-9,18
12:45:12.527,,1000,-8,17
12:45:12.537,,1000,-9,17
12:45:12.547,,999,-9,19
12:45:12.557,,1001,-9,17
12:45:12.567,,1000,-9,18
12:45:12.577,,1000,-9,16
12:45:12.587,,1001,-9,17
12:45:12.597,,999,-9,17
12:45:12.607,,1001,-9,17
12:45:12.617,,1000,-9,17
12:45:12.627,,1001,-8,17
12:45:12.637,,1000,-8,17
12:45:12.647,,1000,-9,17
12:45:12.657,,1000,-9,17
12:45:12.667,,1000,-9,17
12:45:12.677,,1000,-9,18
12:45:12.687,,1000,-9,17
12:45:12.697,,1000,-9,18
12:45:12.707,,1001,-8,16
12:45:12.717,,1000,-9,17
12:45:12.727,,1000,-9,16
12:45:12.737,,1000,-9,17
12:45:12.747,,1001,-9,18
12:45:12.757,,1000,-8,17
12:45:12.767,,1000,-9,16
12:45:12.777,,1000,-8,17
12:45:12.787,,1000,-9,17
12:45:12.797,,1001,-8,17
12:45:12.807,,1000,-9,18
12:45:12.817,,999,-9,17
12:45:12.827,,1000,-8,17
12:45:12.837,,1000,-8,18
12:45:12.847,,1000,-8,17
12:45:12.857,,999,-9,17
12:45:12.867,,1000,-9,17
12:45:12.877,,1000,-8,17
12:45:12.887,,1000,-9,17
12:45:12.897,,1000,-9,18
12:45:12.907,,1000,-8,17
12:45:12.917,,1000,-9,16
12:45:12.927,,1000,-9,18
12:45:12.937,,1000,-9,17
12:45:12.947,,1000,-9,17
12:45:12.957,,1000,-9,18
12:45:12.967,,1000,-8,16
12:45:12.977,,999,-8,18
12:45:12.987,,999,-9,16
12:45:12.997,,1000,-9,17
12:45:13.007,,1000,-9,16
12:45:13.017,,998,-9,17
12:45:13.027,,1000,-9,17
12:45:13.037,,999,-9,18
12:45:13.047,,1000,-9,17
12:45:13.057,,1000,-9,17
12:45:13.067,,1000,-9,17
12:45:13.077,,999,-8,18
12:45:13.087,,1001,-10,16
12:45:13.097,,1000,-9,17
12:45:13.107,,1001,-8,17
12:45:13.117,,1000,-9,18
12:45:13.127,,1000,-9,17
12:45:13.137,,1001,-9,17
12:45:13.147,,1001,-9,18
12:45:13.157,,1000,-9,17
12:45:13.167,,1001,-9,18
12:45:13.177,,1000,-9,17
12:45:13.187,,1000,-8,17
12:45:13.197,,1000,-9,18
12:45:13.207,,1000,-9,17
12:45:13.217,,1000,-9,16
12:45:13.227,,1000,-9,17
12:45:13.237,,1000,-8,16
12:45:13.247,,1002,-9,17
12:45:13.257,,999,-8,15
12:45:13.267,,1000,-8,17
12:45:13.277,,1000,-9,17
12:45:13.287,,1000,-9,17
12:45:13.297,,999,-9,17
12:45:13.307,,1000,-8,18
12:45:13.317,,1000,-9,18
12:45:13.327,,1000,-9,17
12:45:13.337,,1000,-9,17
12:45:13.347,,1000,-9,18
12:45:13.357,,1000,-9,16
12:45:13.367,,1001,-9,18
12:45:13.377,,1000,-8,16
12:45:13.387,,1000,-9,19
12:45:13.397,,1000,-9,16
12:45:13.407,,1000,-9,16
12:45:13.417,,1000,-8,19
12:45:13.427,,1000,-9,15
12:45:13.437,,1001,-9,20
12:45:13.447,,1000,-9,17
12:45:13.457,,999,-9,16
12:45:13.467,,1000,-9,20
12:45:13.477,,1000,-9,16
12:45:13.487,,1000,-9,17
12:45:13.497,,1000,-9,18
12:45:13.507,,1000,-8,17
12:45:13.517,,1000,-9,16
12:45:13.527,,999,-9,16
12:45:13.537,,1000,-9,20
12:45:13.547,,1000,-9,17
12:45:13.557,,1000,-9,17
12:45:13.567,,1000,-9,19
12:45:13.577,,1000,-9,15
12:45:13.587,,1000,-9,17
12:45:13.597,,1000,-9,18
12:45:13.607,,1000,-8,16
12:45:13.617,,999,-9,17
12:45:13.627,,999,-9,16
12:45:13.637,,999,-9,18
12:45:13.647,,1000,-9,16
12:45:13.657,,1000,-8,18
12:45:13.667,,1001,-8,17
12:45:13.677,,1001,-9,16
12:45:13.687,,1001,-8,16
12:45:13.697,,1000,-9,17
12:45:13.707,,1000,-9,18
12:45:13.717,,1000,-8,17
12:45:13.727,,1001,-9,16
12:45:13.737,,1001,-8,17
12:45:13.747,,999,-10,16
12:45:13.757,,1001,-10,18
12:45:13.767,,1000,-9,16
12:45:13.777,,1000,-8,17
12:45:13.787,,999,-10,17
12:45:13.797,,1000,-8,15
12:45:13.807,,1000,-8,18
12:45:13.817,,1000,-9,16
12:45:13.827,,1001,-8,17
12:45:13.837,,999,-10,18
12:45:13.847,,1001,-10,14
12:45:13.857,,1000,-8,18
12:45:13.867,,998,-8,16
12:45:13.877,,1000,-8,16
12:45:13.887,,1000,-8,15
12:45:13.897,,1000,-8,17
12:45:13.907,,1000,-9,17
12:45:13.917,,1001,-8,16
12:45:13.927,,999,-9,17
12:45:13.937,,1000,-8,16
12:45:13.947,,1000,-9,17
12:45:14.096,,1000,-8,16
12:45:14.097,,1000,-8,16
12:45:14.099,,1000,-8,16
12:45:14.100,,1000,-8,16
12:45:14.102,,1000,-9,16
12:45:14.103,,1000,-9,16
12:45:14.104,,1000,-9,16
12:45:14.106,,1000,-9,16
12:45:14.107,,1000,-9,16
12:45:14.108,,1000,-9,16
12:45:14.110,,1000,-9,17
12:45:14.111,,1000,-9,17
12:45:14.112,,1000,-9,17
12:45:14.114,,1000,-9,17
12:45:14.115,,1000,-9,17
12:45:14.117,,1000,-9,17
12:45:14.118,,1000,-9,17
12:45:14.127,,1002,-7,17
12:45:14.137,,1000,-8,17
12:45:14.147,,1000,-9,18
12:45:14.157,,1001,-8,17
12:45:14.167,,1000,-8,17
12:45:14.177,,1000,-9,16
12:45:14.187,,1000,-9,17
12:45:14.197,,1000,-9,17
12:45:14.207,,999,-9,17
12:45:14.217,,1001,-8,17
12:45:14.227,,1000,-8,17
12:45:14.237,,1000,-8,16
12:45:14.247,,1000,-9,17
12:45:14.257,,1000,-9,17
12:45:14.267,,1000,-8,16
12:45:14.277,,1001,-9,17
12:45:14.287,,1001,-9,17
12:45:14.297,,1000,-9,17
12:45:14.307,,1001,-9,16
12:45:14.317,,1000,-9,18
12:45:14.327,,1000,-10,16
12:45:14.337,,999,-10,17
12:45:14.347,,1000,-9,18
12:45:14.357,,999,-10,16
12:45:14.367,,1001,-8,18
12:45:14.377,,1000,-9,17
12:45:14.387,,1000,-9,16
12:45:14.397,,1001,-9,15
12:45:14.407,,1001,-9,16
12:45:14.417,,1000,-9,17
12:45:14.427,,1001,-8,16
12:45:14.437,,1000,-9,17
12:45:14.447,,1001,-9,16
12:45:14.457,,1000,-8,15
12:45:14.467,,999,-10,18
12:45:14.477,,1001,-9,15
12:45:14.487,,1000,-9,17
12:45:14.497,,1000,-8,17
12:45:14.507,,1001,-9,16
12:45:14.517,,1000,-9,18
12:45:14.527,,999,-9,17
12:45:14.537,,1000,-9,17
12:45:14.547,,1000,-9,15
12:45:14.557,,1000,-9,18
12:45:14.567,,999,-8,18
12:45:14.577,,1001,-9,17
12:45:14.587,,1001,-8,17
12:45:14.597,,1000,-8,16
12:45:14.607,,1000,-8,16
12:45:14.617,,1000,-9,18
12:45:14.627,,1000,-9,17
12:45:14.637,,1000,-9,17
12:45:14.647,,1001,-8,16
12:45:14.657,,1000,-9,17
12:45:14.667,,1000,-9,17
12:45:14.677,,1000,-8,16
12:45:14.687,,1001,-9,17
12:45:14.697,,1000,-9,16
12:45:14.707,,1000,-8,17
12:45:14.717,,999,-9,17
12:45:14.727,,1000,-9,16
12:45:14.737,,1000,-9,17
12:45:14.747,,1000,-9,17
12:45:14.757,,1001,-9,17
12:45:14.767,,1000,-9,16
12:45:14.777,,1001,-8,16
12:45:14.787,,1000,-9,17
12:45:14.797,,1000,-9,17
12:45:14.807,,999,-9,17
12:45:14.817,,1001,-9,16
12:45:14.827,,1000,-8,17
12:45:14.837,,999,-9,17
12:45:14.847,,999,-9,16
12:45:14.857,,1000,-9,17
12:45:14.867,,1001,-8,16
12:45:14.877,,1001,-9,17
12:45:14.887,,1000,-9,17
12:45:14.897,,1001,-8,17
12:45:14.907,,1000,-9,18
12:45:14.917,,1001,-8,17
12:45:14.927,,999,-9,18
12:45:14.937,,999,-8,16
12:45:14.947,,1000,-8,17
12:45:14.957,,1000,-9,17
12:45:14.967,,1001,-8,17
12:45:14.977,,1000,-9,17
12:45:14.987,,999,-9,17
12:45:14.997,,1000,-8,17
12:45:15.007,,1000,-8,17
12:45:15.017,,1001,-9,17
12:45:15.027,,1000,-9,17
12:45:15.037,,1000,-9,16
12:45:15.047,,1000,-9,17
12:45:15.057,,1000,-9,17
12:45:15.067,,1000,-8,17
12:45:15.077,,999,-9,17
12:45:15.087,,1000,-9,17
12:45:15.097,,1000,-8,17
12:45:15.107,,1000,-9,16
12:45:15.117,,1000,-8,17
12:45:15.127,,1000,-8,18
12:45:15.137,,1000,-9,16
12:45:15.147,,1000,-8,18
12:45:15.157,,1000,-9,16
12:45:15.167,,1000,-9,17
12:45:15.177,,1000,-9,17
12:45:15.187,,1000,-8,17
12:45:15.197,,1000,-8,17
12:45:15.207,,999,-9,17
12:45:15.217,,1001,-8,17
12:45:15.227,,1000,-9,16
12:45:15.237,,999,-9,16
12:45:15.247,,1000,-8,18
12:45:15.257,,1000,-8,17
12:45:15.267,,999,-9,17
12:45:15.277,,1001,-8,17
12:45:15.287,,999,-8,18
12:45:15.297,,999,-8,16
12:45:15.307,,1000,-7,16
12:45:15.317,,1000,-9,17
12:45:15.327,,1000,-9,16
12:45:15.337,,1000,-9,18
12:45:15.347,,1000,-8,18
12:45:15.357,,1000,-9,17
12:45:15.367,,1001,-8,18
12:45:15.377,,1000,-9,17
12:45:15.387,,1000,-8,18
12:45:15.397,,1000,-9,17
12:45:15.407,,1000,-9,17
12:45:15.417,,1000,-8,17
12:45:15.427,,1001,-8,16
12:45:15.437,,999,-8,19
12:45:15.447,,1000,-9,17
12:45:15.457,,1000,-9,17
12:45:15.467,,1001,-8,18
12:45:15.477,,1000,-9,16
12:45:15.487,,1000,-8,17
12:45:15.497,,1001,-9,17
12:45:15.507,,1000,-9,16
12:45:15.517,,1000,-8,18
12:45:15.527,,999,-9,17
12:45:15.537,,1001,-9,17
12:45:15.547,,1000,-8,17
12:45:15.557,,1000,-8,18
12:45:15.567,,1000,-8,17
12:45:15.577,,1001,-8,17
12:45:15.587,,1000,-9,18
12:45:15.742,,1000,-8,17
12:45:15.743,,1000,-8,17
12:45:15.745,,1000,-8,17
12:45:15.746,,1000,-8,17
12:45:15.747,,1000,-8,17
12:45:15.749,,1000,-8,17
12:45:15.750,,1000,-8,17
12:45:15.752,,1000,-9,18
12:45:15.753,,1000,-9,18
12:45:15.754,,1000,-9,18
12:45:15.756,,1000,-9,18
12:45:15.757,,1000,-9,18
12:45:15.758,,1000,-9,18
12:45:15.760,,1000,-9,18
12:45:15.761,,1000,-8,16
12:45:15.762,,1000,-8,16
12:45:15.764,,1000,-8,16
12:45:15.767,,1000,-8,16
12:45:15.777,,1000,-9,17
12:45:15.787,,999,-9,17
12:45:15.797,,1000,-8,16
12:45:15.807,,1000,-9,16
12:45:15.817,,1000,-9,18
12:45:15.827,,1000,-8,18
12:45:15.837,,999,-9,16
12:45:15.847,,1000,-9,17
12:45:15.857,,1001,-9,17
12:45:15.867,,999,-8,17
12:45:15.877,,1000,-8,18
12:45:15.887,,1000,-9,16
12:45:15.897,,999,-9,16
12:45:15.907,,1001,-9,17
12:45:15.917,,1000,-9,16
12:45:15.927,,1000,-9,17
12:45:15.937,,1000,-9,17
12:45:15.947,,1000,-9,18
12:45:15.957,,1000,-9,17
12:45:15.967,,1000,-9,17
12:45:15.977,,1000,-9,17
12:45:15.987,,1000,-8,17
12:45:15.997,,1000,-8,17
12:45:16.007,,1000,-9,18
12:45:16.017,,1001,-9,17
12:45:16.027,,1000,-9,18
12:45:16.037,,1001,-9,18
12:45:16.047,,1000,-9,18
12:45:16.057,,1000,-9,17
12:45:16.067,,1000,-9,19
12:45:16.077,,1000,-9,16
12:45:16.087,,1001,-9,17
12:45:16.097,,1000,-9,17
12:45:16.107,,1000,-9,16
12:45:16.117,,1001,-8,18
12:45:16.127,,1000,-9,16
12:45:16.137,,1000,-9,16
12:45:16.147,,1000,-9,17
12:45:16.157,,1000,-9,16
12:45:16.167,,1001,-8,16
12:45:16.177,,1000,-8,17
12:45:16.187,,1000,-9,17
12:45:16.197,,1000,-9,16
12:45:16.207,,1000,-9,17
12:45:16.217,,1000,-8,17
12:45:16.227,,1000,-8,16
12:45:16.237,,1001,-8,16
12:45:16.247,,1000,-9,17
12:45:16.257,,1000,-9,17
12:45:16.267,,999,-9,17
12:45:16.277,,1000,-9,17
12:45:16.287,,1001,-9,17
12:45:16.297,,999,-9,18
12:45:16.307,,1001,-9,17
12:45:16.317,,1000,-8,17
12:45:16.327,,1000,-8,16
12:45:16.337,,1000,-8,17
12:45:16.347,,1000,-8,16
12:45:16.357,,1000,-8,16
12:45:16.367,,1000,-8,18
12:45:16.377,,999,-9,16
12:45:16.387,,1000,-9,18
12:45:16.397,,1000,-8,17
12:45:16.407,,1000,-9,16
12:45:16.417,,1000,-9,17
12:45:16.427,,1000,-9,17
12:45:16.437,,1000,-8,16
12:45:16.447,,1001,-8,17
12:45:16.457,,1001,-8,18
12:45:16.467,,1000,-8,16
12:45:16.477,,1001,-8,17
12:45:16.487,,1001,-8,17
12:45:16.497,,1000,-9,16
12:45:16.507,,1000,-9,17
12:45:16.517,,1000,-9,17
12:45:16.527,,1000,-8,15
12:45:16.537,,1001,-9,17
12:45:16.547,,999,-8,17
12:45:16.557,,1001,-8,17
12:45:16.567,,1000,-8,17
12:45:16.577,,999,-9,17
12:45:16.587,,1000,-10,17
12:45:16.597,,1000,-8,15
12:45:16.607,,1001,-9,16
12:45:16.617,,1000,-8,17
12:45:16.627,,1000,-9,17
12:45:16.637,,1000,-9,17
12:45:16.647,,1001,-8,16
12:45:16.657,,1000,-9,18
12:45:16.667,,1000,-9,16
12:45:16.677,,1000,-8,17
12:45:16.687,,999,-9,17
12:45:16.697,,999,-9,16
12:45:16.707,,1000,-9,16
12:45:16.717,,1000,-9,15
12:45:16.727,,1000,-9,18
12:45:16.737,,1000,-9,17
12:45:16.747,,1000,-8,17
12:45:16.757,,999,-8,18
12:45:16.767,,1000,-8,16
12:45:16.777,,1000,-9,18
12:45:16.787,,1000,-9,16
12:45:16.797,,1001,-8,17
12:45:16.807,,999,-9,18
12:45:16.817,,1000,-9,15
12:45:16.827,,1000,-9,17
12:45:16.837,,1000,-8,16
12:45:16.847,,1000,-9,18
12:45:16.857,,1000,-9,16
12:45:16.867,,1000,-9,17
12:45:16.877,,999,-9,17
12:45:16.887,,999,-8,16
12:45:16.897,,1000,-8,18
12:45:16.907,,1000,-8,17
12:45:16.917,,1000,-9,16
12:45:16.927,,1000,-9,18
12:45:16.937,,1000,-9,16
12:45:16.947,,1000,-8,17
12:45:16.957,,1000,-8,17
12:45:16.967,,1000,-8,18
12:45:16.977,,1000,-9,17
12:45:16.987,,1000,-9,17
12:45:16.997,,1001,-9,17
12:45:17.007,,1000,-9,17
12:45:17.017,,1001,-8,16
12:45:17.027,,1000,-9,18
12:45:17.037,,1000,-8,16
12:45:17.047,,1000,-9,17
12:45:17.057,,999,-9,15
12:45:17.067,,1000,-9,16
12:45:17.077,,1000,-9,17
12:45:17.087,,999,-8,16
12:45:17.097,,999,-9,16
12:45:17.107,,1001,-9,15
12:45:17.117,,1000,-9,17
12:45:17.127,,1000,-9,16
12:45:17.137,,1000,-9,15
12:45:17.147,,999,-9,17
12:45:17.157,,1001,-8,17
12:45:17.167,,1000,-9,16
12:45:17.177,,1000,-9,17
12:45:17.187,,1000,-8,16
12:45:17.197,,1000,-9,18
12:45:17.207,,999,-9,17
12:45:17.217,,1001,-9,16
12:45:17.227,,1000,-8,16
12:45:17.237,,1000,-8,17
12:45:17.386,,1000,-9,18
12:45:17.387,,1000,-9,18
12:45:17.389,,1000,-9,18
12:45:17.390,,1000,-9,18
12:45:17.391,,1000,-9,18
12:45:17.393,,1000,-9,18
12:45:17.394,,1000,-8,16
12:45:17.395,,1000,-8,16
12:45:17.397,,1000,-8,16
12:45:17.398,,1000,-8,16
12:45:17.400,,1000,-8,16
12:45:17.401,,1000,-8,16
12:45:17.402,,1000,-8,16
12:45:17.404,,1000,-9,17
12:45:17.405,,1000,-9,17
12:45:17.406,,1000,-9,17
12:45:17.408,,1000,-9,17
12:45:17.417,,999,-9,18
12:45:17.427,,1000,-8,17
12:45:17.437,,1000,-9,17
12:45:17.447,,1000,-9,17
12:45:17.457,,1000,-8,16
12:45:17.467,,1001,-9,17
12:45:17.477,,1001,-9,17
12:45:17.487,,1000,-8,17
12:45:17.497,,1001,-9,15
12:45:17.507,,1000,-9,18
12:45:17.517,,1000,-9,17
12:45:17.527,,1001,-9,16
12:45:17.537,,1001,-8,16
12:45:17.547,,999,-9,16
12:45:17.557,,1000,-9,16
12:45:17.567,,1000,-9,16
12:45:17.577,,1000,-9,17
12:45:17.587,,1000,-9,18
12:45:17.597,,1000,-8,16
12:45:17.607,,1000,-9,16
12:45:17.617,,999,-9,15
12:45:17.627,,1000,-9,17
12:45:17.637,,1000,-9,16
12:45:17.647,,1000,-8,16
12:45:17.657,,1000,-9,17
12:45:17.667,,1000,-8,15
12:45:17.677,,999,-9,17
12:45:17.687,,1000,-9,17
12:45:17.697,,1000,-9,15
12:45:17.707,,999,-9,17
12:45:17.717,,1000,-9,17
12:45:17.727,,1000,-8,17
12:45:17.737,,1000,-8,16
12:45:17.747,,1000,-9,16
12:45:17.757,,1000,-8,15
12:45:17.767,,1000,-9,15
12:45:17.777,,1000,-8,17
12:45:17.787,,1000,-9,15
12:45:17.797,,1000,-8,15
12:45:17.807,,1000,-9,17
12:45:17.817,,1000,-9,15
12:45:17.827,,1001,-9,16
12:45:17.837,,1000,-8,15
12:45:17.847,,1000,-9,16
12:45:17.857,,1001,-9,16
12:45:17.867,,1001,-9,16
12:45:17.877,,1000,-9,16
12:45:17.887,,999,-9,15
12:45:17.897,,1001,-8,16
12:45:17.907,,1001,-9,15
12:45:17.917,,1000,-9,16
12:45:17.927,,1000,-9,16
12:45:17.937,,1000,-9,16
12:45:17.947,,1000,-9,17
12:45:17.957,,1000,-9,15
12:45:17.967,,1000,-9,16
12:45:17.977,,1000,-9,16
12:45:17.987,,1000,-9,17
12:45:17.997,,999,-10,16
12:45:18.007,,1000,-8,15
12:45:18.017,,1001,-8,17
12:45:18.027,,1000,-9,15
12:45:18.037,,1001,-9,15
12:45:18.047,,1000,-9,16
12:45:18.057,,999,-9,16
12:45:18.067,,1000,-9,16
12:45:18.077,,1000,-9,16
12:45:18.087,,999,-8,15
12:45:18.097,,1000,-8,18
12:45:18.107,,999,-9,16
12:45:18.117,,1001,-9,16
12:45:18.127,,1000,-9,15
12:45:18.137,,1000,-9,17
12:45:18.147,,1000,-9,16
12:45:18.157,,1001,-9,16
12:45:18.167,,1001,-8,17
12:45:18.177,,1000,-9,15
12:45:18.187,,1001,-8,15
12:45:18.197,,999,-8,17
12:45:18.207,,999,-8,15
12:45:18.217,,1000,-9,17
12:45:18.227,,1000,-9,15
12:45:18.237,,1001,-8,16
12:45:18.247,,1000,-9,14
12:45:18.257,,1000,-9,16
12:45:18.267,,1001,-9,16
12:45:18.277,,1000,-9,15
12:45:18.287,,1000,-8,16
12:45:18.297,,1001,-8,16
12:45:18.307,,1000,-8,16
12:45:18.317,,1000,-8,16
12:45:18.327,,1000,-9,15
12:45:18.337,,1000,-9,17
12:45:18.347,,1000,-10,15
12:45:18.357,,1000,-8,15
12:45:18.367,,1000,-8,16
12:45:18.377,,1000,-9,16
12:45:18.387,,999,-8,16
12:45:18.397,,1001,-9,15
12:45:18.407,,1000,-8,16
12:45:18.417,,999,-9,14
12:45:18.427,,1000,-9,15
12:45:18.437,,1000,-8,16
12:45:18.447,,1001,-9,15
12:45:18.457,,1000,-9,17
12:45:18.467,,1000,-8,15
12:45:18.477,,1000,-9,16
12:45:18.487,,999,-8,16
12:45:18.497,,1001,-9,15
12:45:18.507,,999,-9,16
12:45:18.517,,1001,-9,15
12:45:18.527,,1000,-9,16
12:45:18.537,,999,-9,16
12:45:18.547,,1000,-9,16
12:45:18.557,,1000,-9,17
12:45:18.567,,999,-9,16
12:45:18.577,,1000,-9,17
12:45:18.587,,1000,-8,16
12:45:18.597,,1000,-8,16
12:45:18.607,,1000,-8,16
12:45:18.617,,1000,-9,15
12:45:18.627,,1000,-8,16
12:45:18.637,,1000,-8,16
12:45:18.647,,1000,-9,17
12:45:18.657,,999,-8,15
12:45:18.667,,1000,-8,16
12:45:18.677,,1000,-9,15
12:45:18.687,,999,-9,16
12:45:18.697,,1000,-9,16
12:45:18.707,,1001,-9,16
12:45:18.717,,1000,-9,15
12:45:18.727,,1000,-8,17
12:45:18.737,,1000,-9,15
12:45:18.747,,1000,-8,16
12:45:18.757,,1000,-9,15
12:45:18.767,,1000,-8,17
12:45:18.777,,1000,-9,17
12:45:18.787,,1000,-9,15
12:45:18.797,,1001,-9,17
12:45:18.807,,999,-8,15
12:45:18.817,,1000,-9,15
12:45:18.827,,999,-9,17
12:45:18.837,,1000,-9,16
12:45:18.847,,1000,-10,16
12:45:18.857,,1000,-9,16
12:45:18.867,,1000,-9,15
12:45:18.877,,1000,-9,16
12:45:19.031,,1000,-8,16
12:45:19.033,,1000,-8,16
12:45:19.034,,1000,-8,16
12:45:19.035,,1000,-8,17
12:45:19.037,,1000,-8,17
12:45:19.038,,1000,-8,17
12:45:19.039,,1000,-8,17
12:45:19.041,,1000,-8,17
12:45:19.042,,1000,-8,17
12:45:19.043,,1000,-8,17
12:45:19.045,,1000,-9,16
12:45:19.046,,1000,-9,16
12:45:19.048,,1000,-9,16
12:45:19.049,,1000,-9,16
12:45:19.050,,1000,-9,16
12:45:19.052,,1000,-9,16
12:45:19.053,,1000,-9,16
12:45:19.057,,1001,-9,16
12:45:19.067,,1000,-7,17
12:45:19.077,,1000,-9,15
12:45:19.087,,1000,-9,17
12:45:19.097,,1000,-9,17
12:45:19.107,,1000,-10,15
12:45:19.117,,1000,-9,17
12:45:19.127,,1000,-9,17
12:45:19.137,,1001,-9,17
12:45:19.147,,1000,-8,16
12:45:19.157,,1000,-9,17
12:45:19.167,,1000,-9,17
12:45:19.177,,1000,-9,16
12:45:19.187,,1001,-9,17
12:45:19.197,,999,-9,16
12:45:19.207,,1000,-9,16
12:45:19.217,,999,-8,18
12:45:19.227,,1001,-10,16
12:45:19.237,,999,-8,17
12:45:19.247,,1000,-8,16
12:45:19.257,,1000,-8,15
12:45:19.267,,1001,-8,17
12:45:19.277,,1000,-8,18
12:45:19.287,,999,-9,17
12:45:19.297,,1000,-9,15
12:45:19.307,,1000,-8,17
12:45:19.317,,999,-9,15
12:45:19.327,,1000,-9,16
12:45:19.337,,1000,-9,17
12:45:19.347,,1000,-9,15
12:45:19.357,,1001,-8,16
12:45:19.367,,1000,-9,15
12:45:19.377,,1000,-9,16
12:45:19.387,,998,-9,17
12:45:19.397,,999,-9,17
12:45:19.407,,1000,-9,17
12:45:19.417,,1000,-9,15
12:45:19.427,,1000,-9,17
12:45:19.437,,1000,-10,16
12:45:19.447,,1000,-9,16
12:45:19.457,,1000,-9,17
12:45:19.467,,1000,-8,16
12:45:19.477,,1000,-9,17
12:45:19.487,,1000,-9,17
12:45:19.497,,1000,-8,16
12:45:19.507,,1001,-8,16
12:45:19.517,,1000,-9,17
12:45:19.527,,999,-9,17
12:45:19.537,,1000,-8,16
12:45:19.547,,1000,-9,17
12:45:19.557,,1000,-9,17
12:45:19.567,,1000,-9,17
12:45:19.577,,1001,-9,17
12:45:19.587,,1000,-8,16
12:45:19.597,,1001,-8,18
12:45:19.607,,1000,-9,16
12:45:19.617,,1000,-9,16
12:45:19.627,,1000,-9,17
12:45:19.637,,1000,-8,17
12:45:19.647,,999,-8,16
12:45:19.657,,1000,-9,16
12:45:19.667,,1000,-8,17
12:45:19.677,,1000,-9,17
12:45:19.687,,1000,-8,16
12:45:19.697,,1000,-8,18
12:45:19.707,,1000,-9,15
12:45:19.717,,999,-9,16
12:45:19.727,,1000,-8,17
12:45:19.737,,1000,-9,16
12:45:19.747,,1000,-8,16
12:45:19.757,,1000,-9,16
12:45:19.767,,1001,-8,15
12:45:19.777,,1000,-8,17
12:45:19.787,,1000,-9,17
12:45:19.797,,1000,-8,17
12:45:19.807,,1000,-9,16
12:45:19.817,,1000,-8,16
12:45:19.827,,1000,-9,17
12:45:19.837,,1000,-9,16
12:45:19.847,,1000,-8,18
12:45:19.857,,999,-8,16
12:45:19.867,,1000,-9,17
12:45:19.877,,1000,-9,18
12:45:19.887,,999,-9,17
12:45:19.897,,1000,-7,16
12:45:19.907,,1000,-8,17
12:45:19.917,,1000,-8,17
12:45:19.927,,1001,-9,16
12:45:19.937,,1000,-8,15
12:45:19.947,,1001,-9,17
12:45:19.957,,999,-8,16
12:45:19.967,,1000,-9,17
12:45:19.977,,1000,-9,16
12:45:19.987,,1001,-8,17
12:45:19.997,,1000,-9,17
12:45:20.007,,1000,-9,15
12:45:20.017,,999,-8,16
12:45:20.027,,1000,-9,16
12:45:20.037,,1000,-9,16
12:45:20.047,,1000,-8,17
12:45:20.057,,1000,-8,16
12:45:20.067,,1001,-9,16
12:45:20.077,,1000,-9,15
12:45:20.087,,1000,-8,15
12:45:20.097,,999,-8,16
12:45:20.107,,999,-9,16
12:45:20.117,,1000,-9,17
12:45:20.127,,1001,-9,17
12:45:20.137,,1000,-9,17
12:45:20.147,,1000,-9,16
12:45:20.157,,1000,-9,17
12:45:20.167,,999,-8,17
12:45:20.177,,1000,-9,17
12:45:20.187,,1000,-8,16
12:45:20.197,,1000,-9,15
12:45:20.207,,1000,-8,18
12:45:20.217,,1000,-9,16
12:45:20.227,,1000,-8,15
12:45:20.237,,1000,-9,17
12:45:20.247,,1000,-8,15
12:45:20.257,,1000,-8,16
12:45:20.267,,1000,-9,17
12:45:20.277,,1000,-8,16
12:45:20.287,,1001,-9,18
12:45:20.297,,999,-9,16
12:45:20.307,,1000,-8,17
12:45:20.317,,1000,-9,16
12:45:20.327,,1000,-8,17
12:45:20.337,,1000,-9,17
12:45:20.347,,999,-9,15
12:45:20.357,,1001,-9,17
12:45:20.367,,999,-9,17
12:45:20.377,,1000,-9,17
12:45:20.387,,999,-8,17
12:45:20.397,,1000,-8,15
12:45:20.407,,999,-8,16
12:45:20.417,,1000,-8,16
12:45:20.427,,1000,-9,18
12:45:20.437,,999,-9,16
12:45:20.447,,1001,-9,16
12:45:20.457,,1000,-9,17
12:45:20.467,,1000,-8,15
12:45:20.477,,1001,-9,17
12:45:20.487,,1000,-9,15
12:45:20.497,,1000,-9,15
12:45:20.507,,1000,-9,17
12:45:20.517,,1000,-8,15
12:45:20.527,,1000,-9,17
12:45:20.676,,1001,-9,17
12:45:20.677,,1000,-9,17
12:45:20.679,,1000,-9,17
12:45:20.680,,1000,-9,17
12:45:20.681,,1000,-9,17
12:45:20.683,,1000,-9,17
12:45:20.684,,1000,-9,17
12:45:20.685,,1000,-9,17
12:45:20.687,,1000,-9,16
12:45:20.688,,1000,-9,16
12:45:20.690,,1000,-9,16
12:45:20.691,,1000,-9,16
12:45:20.692,,1000,-9,16
12:45:20.694,,1000,-9,16
12:45:20.695,,1000,-9,16
12:45:20.696,,1000,-9,16
12:45:20.698,,1000,-9,16
12:45:20.707,,1000,-9,15
12:45:20.717,,1001,-8,17
12:45:20.727,,1000,-8,16
12:45:20.736,,1000,-8,16
12:45:20.747,,1000,-8,17
12:45:20.757,,1000,-9,15
12:45:20.766,,1000,-8,17
12:45:20.777,,1000,-9,16
12:45:20.787,,1000,-9,16
12:45:20.796,,1000,-9,17
12:45:20.807,,1000,-8,16
12:45:20.817,,1000,-8,17
12:45:20.826,,1000,-9,16
12:45:20.837,,1000,-8,16
12:45:20.847,,1000,-8,16
12:45:20.856,,1000,-9,16
12:45:20.867,,1000,-9,17
12:45:20.876,,1000,-8,16
12:45:20.886,,1001,-9,16
12:45:20.897,,999,-8,17
12:45:20.906,,1000,-9,15
12:45:20.916,,1000,-9,16
12:45:20.926,,1000,-8,16
12:45:20.936,,1000,-9,16
12:45:20.946,,1001,-9,16
12:45:20.956,,1000,-9,17
12:45:20.966,,1000,-9,17
12:45:20.976,,1000,-9,14
12:45:20.986,,1000,-9,17
12:45:20.996,,1000,-9,16
12:45:21.006,,1001,-9,16
12:45:21.016,,1000,-9,16
12:45:21.026,,1001,-8,15
12:45:21.036,,1000,-8,16
12:45:21.046,,1000,-8,15
12:45:21.056,,999,-9,16
12:45:21.066,,999,-9,17
12:45:21.076,,1001,-9,17
12:45:21.086,,1000,-8,13
12:45:21.096,,999,-10,4
12:45:21.106,,1000,-9,18
12:45:21.116,,1002,-6,37
12:45:21.126,,998,-11,0
12:45:21.136,,998,-9,11
12:45:21.146,,1002,-6,32
12:45:21.156,,966,-56,18
12:45:21.166,,1113,-323,-103
12:45:21.176,,1065,-363,-107
12:45:21.186,,936,3,-240
12:45:21.196,,965,171,-17
12:45:21.206,,867,14,128
12:45:21.216,,1079,3,96
12:45:21.226,,1105,58,139
12:45:21.236,,924,32,128
12:45:21.246,,1108,29,103
12:45:21.256,,923,46,98
12:45:21.266,,931,25,83
12:45:21.276,,1063,34,60
12:45:21.286,,1008,0,66
12:45:21.296,,1027,17,-77
12:45:21.306,,1001,-8,10
12:45:21.316,,991,-18,29
12:45:21.326,,998,-15,2
12:45:21.336,,987,-22,19
12:45:21.346,,993,-17,10
12:45:21.356,,997,-15,-11
12:45:21.366,,994,-16,19
12:45:21.376,,1005,-6,29
12:45:21.386,,1003,-9,10
12:45:21.396,,1000,-11,17
12:45:21.406,,1002,-8,22
12:45:21.416,,998,-12,9
12:45:21.426,,1001,-10,16
12:45:21.436,,1001,-9,21
12:45:21.446,,1000,-11,12
12:45:21.456,,1001,-11,19
12:45:21.466,,1000,-11,13
12:45:21.476,,1000,-10,16
12:45:21.486,,1001,-9,20
12:45:21.496,,1000,-12,14
12:45:21.506,,1000,-10,15
12:45:21.516,,1000,-9,20
12:45:21.526,,1000,-11,15
12:45:21.536,,1000,-11,13
12:45:21.546,,1000,-10,18
12:45:21.556,,1000,-11,15
12:45:21.566,,1000,-11,14
12:45:21.576,,1000,-11,17
12:45:21.586,,999,-11,14
12:45:21.596,,1000,-10,18
12:45:21.606,,999,-10,18
12:45:21.616,,1000,-11,14
12:45:21.626,,1000,-11,17
12:45:21.636,,1001,-10,18
12:45:21.646,,1000,-11,14
12:45:21.656,,1000,-10,18
12:45:21.666,,1001,-10,17
12:45:21.676,,1000,-11,15
12:45:21.686,,1000,-10,18
12:45:21.696,,1001,-10,17
12:45:21.706,,1001,-11,16
12:45:21.716,,1001,-11,17
12:45:21.726,,999,-11,15
12:45:21.736,,999,-10,16
12:45:21.746,,1000,-10,18
12:45:21.756,,1000,-10,15
12:45:21.766,,1001,-11,16
12:45:21.776,,1001,-11,17
12:45:21.786,,999,-10,16
12:45:21.796,,1000,-11,15
12:45:21.806,,1000,-11,16
12:45:21.816,,1000,-10,16
12:45:21.826,,999,-11,16
12:45:21.836,,1000,-10,16
12:45:21.846,,999,-10,16
12:45:21.856,,1000,-10,17
12:45:21.866,,1000,-11,17
12:45:21.876,,999,-11,16
12:45:21.886,,1001,-10,17
12:45:21.896,,1000,-11,16
12:45:21.906,,999,-11,16
12:45:21.916,,1000,-10,17
12:45:21.926,,1001,-10,16
12:45:21.936,,1000,-11,16
12:45:21.946,,1001,-11,17
12:45:21.956,,1001,-11,16
12:45:21.966,,1001,-11,16
12:45:21.976,,1000,-11,17
12:45:21.986,,1001,-11,16
12:45:21.996,,1000,-11,16
12:45:22.006,,1000,-9,17
12:45:22.016,,1000,-12,16
12:45:22.026,,1001,-11,16
12:45:22.036,,1001,-10,15
12:45:22.046,,1000,-11,16
12:45:22.056,,1000,-10,16
12:45:22.066,,999,-10,16
12:45:22.076,,1001,-10,15
12:45:22.086,,1000,-10,15
12:45:22.096,,1000,-10,15
12:45:22.106,,1000,-11,16
12:45:22.116,,1000,-10,17
12:45:22.126,,1000,-10,16
12:45:22.136,,1000,-10,16
12:45:22.292,,1000,-11,17
12:45:22.293,,1000,-11,17
12:45:22.294,,1000,-11,17
12:45:22.296,,1000,-11,17
12:45:22.297,,1000,-11,17
12:45:22.298,,1000,-11,17
12:45:22.300,,1000,-11,17
12:45:22.301,,1000,-11,16
12:45:22.302,,1000,-11,16
12:45:22.304,,1000,-11,16
12:45:22.305,,1000,-11,16
12:45:22.307,,1000,-11,16
12:45:22.308,,1000,-11,16
12:45:22.309,,1000,-11,16
12:45:22.311,,999,-11,16
12:45:22.312,,999,-11,16
12:45:22.313,,999,-11,16
12:45:22.316,,999,-11,16
12:45:22.326,,1000,-10,16
12:45:22.336,,1000,-11,17
12:45:22.346,,1000,-11,17
12:45:22.356,,1000,-11,16
12:45:22.366,,1001,-10,16
12:45:22.376,,1001,-11,17
12:45:22.386,,1001,-11,16
12:45:22.396,,999,-11,15
12:45:22.406,,1000,-11,16
12:45:22.416,,1000,-11,16
12:45:22.426,,999,-12,17
12:45:22.436,,1000,-11,16
12:45:22.446,,1000,-11,16
12:45:22.456,,999,-11,16
12:45:22.466,,999,-10,17
12:45:22.476,,1000,-11,16
12:45:22.486,,1001,-10,16
12:45:22.496,,999,-10,16
12:45:22.506,,1000,-11,16
12:45:22.516,,1000,-10,16
12:45:22.526,,1001,-10,16
12:45:22.536,,999,-11,15
12:45:22.546,,1000,-11,16
12:45:22.556,,999,-11,16
12:45:22.566,,1000,-11,16
12:45:22.576,,1000,-11,17
12:45:22.586,,1001,-10,16
12:45:22.596,,1000,-10,16
12:45:22.606,,1000,-10,16
12:45:22.616,,1001,-10,16
12:45:22.626,,1000,-10,16
12:45:22.636,,1000,-10,16
12:45:22.646,,1000,-10,16
12:45:22.656,,1000,-10,16
12:45:22.666,,1000,-10,15
12:45:22.676,,1000,-11,16
12:45:22.686,,1000,-11,16
12:45:22.696,,1000,-11,17
12:45:22.706,,1000,-10,17
12:45:22.716,,1001,-10,16
12:45:22.726,,1000,-11,16
12:45:22.736,,875,-22,12
12:45:22.746,,970,-10,-62
12:45:22.756,,1182,-11,-7
12:45:22.766,,925,8,31
12:45:22.776,,989,-26,98
12:45:22.786,,1020,-13,115
12:45:22.796,,1006,0,91
12:45:22.806,,992,-19,84
12:45:22.816,,1096,-278,-52
12:45:22.826,,1131,-150,-505
12:45:22.836,,847,67,-209
12:45:22.846,,814,33,-22
12:45:22.856,,834,12,31
12:45:22.866,,976,64,92
12:45:22.876,,1171,71,156
12:45:22.886,,864,36,86
12:45:22.896,,974,35,83
12:45:22.906,,973,-21,126
12:45:22.916,,984,-18,105
12:45:22.926,,985,-20,80
12:45:22.936,,993,-14,36
12:45:22.946,,1068,51,32
12:45:22.956,,990,-13,0
12:45:22.966,,993,-13,19
12:45:22.976,,1007,-1,28
12:45:22.986,,1003,-5,54
12:45:22.996,,994,-13,72
12:45:23.006,,1005,-3,51
12:45:23.016,,999,-9,52
12:45:23.026,,1000,-7,39
12:45:23.036,,997,-11,20
12:45:23.046,,1006,-2,6
12:45:23.056,,1000,-7,11
12:45:23.066,,996,-10,17
12:45:23.076,,1001,-6,17
12:45:23.086,,1002,-5,16
12:45:23.096,,999,-7,15
12:45:23.106,,999,-8,17
12:45:23.116,,1001,-6,19
12:45:23.126,,999,-9,18
12:45:23.136,,1001,-7,17
12:45:23.146,,1001,-6,14
12:45:23.156,,1000,-8,11
12:45:23.166,,1000,-7,6
12:45:23.176,,1002,-6,4
12:45:23.186,,1001,-7,5
12:45:23.196,,999,-8,9
12:45:23.206,,1001,-7,10
12:45:23.216,,1001,-7,9
12:45:23.226,,1000,-7,9
12:45:23.236,,1000,-8,10
12:45:23.246,,1000,-7,6
12:45:23.256,,1001,-7,10
12:45:23.266,,1000,-8,17
12:45:23.276,,1000,-8,18
12:45:23.286,,1000,-7,17
12:45:23.296,,1000,-7,15
12:45:23.306,,1000,-7,17
12:45:23.316,,999,-8,18
12:45:23.326,,1000,-8,16
12:45:23.336,,1001,-7,14
12:45:23.346,,999,-8,17
12:45:23.356,,1000,-7,17
12:45:23.366,,1001,-7,15
12:45:23.376,,1000,-8,16
12:45:23.386,,1000,-7,17
12:45:23.396,,1001,-8,16
12:45:23.406,,1000,-8,16
12:45:23.416,,1000,-8,18
12:45:23.426,,999,-8,16
12:45:23.436,,1001,-7,15
12:45:23.446,,1000,-7,16
12:45:23.456,,1000,-7,17
12:45:23.466,,1001,-8,17
12:45:23.476,,1002,-7,16
12:45:23.486,,1000,-7,16
12:45:23.496,,999,-7,17
12:45:23.506,,1000,-7,16
12:45:23.516,,1000,-8,16
12:45:23.526,,1001,-7,17
12:45:23.536,,999,-7,16
12:45:23.546,,1000,-7,16
12:45:23.556,,1000,-7,16
12:45:23.566,,1000,-8,16
12:45:23.576,,1000,-7,17
12:45:23.586,,1000,-7,16
12:45:23.596,,1001,-7,16
12:45:23.606,,1000,-7,16
12:45:23.616,,1000,-7,16
12:45:23.626,,1000,-7,17
12:45:23.636,,1000,-7,16
12:45:23.646,,1001,-7,16
12:45:23.656,,1000,-7,17
12:45:23.666,,1000,-7,16
12:45:23.676,,1001,-8,17
12:45:23.686,,1000,-7,16
12:45:23.696,,1001,-8,17
12:45:23.706,,999,-7,17
12:45:23.716,,1000,-7,16
12:45:23.726,,1000,-8,17
12:45:23.736,,1000,-7,17
12:45:23.746,,1000,-7,16
12:45:23.756,,1000,-7,15
12:45:23.766,,1000,-8,17
12:45:23.918,,1000,-7,16
12:45:23.919,,1000,-7,16
12:45:23.921,,1000,-7,16
12:45:23.922,,1000,-7,16
12:45:23.924,,1000,-7,17
12:45:23.925,,1000,-7,17
12:45:23.926,,1000,-7,17
12:45:23.928,,1000,-7,17
12:45:23.929,,1000,-7,17
12:45:23.930,,1000,-7,17
12:45:23.932,,1000,-7,17
12:45:23.933,,1000,-6,16
12:45:23.934,,1000,-6,16
12:45:23.936,,1000,-6,16
12:45:23.937,,1000,-6,16
12:45:23.938,,1000,-6,16
12:45:23.940,,1000,-6,16
12:45:23.946,,1000,-7,15
12:45:23.956,,1000,-7,16
12:45:23.966,,1000,-7,17
12:45:23.976,,1001,-7,17
12:45:23.986,,999,-7,15
12:45:23.996,,999,-7,17
12:45:24.006,,1000,-7,16
12:45:24.016,,1000,-7,17
12:45:24.026,,1000,-7,16
12:45:24.036,,1000,-7,16
12:45:24.046,,1001,-7,16
12:45:24.056,,999,-7,17
12:45:24.066,,1000,-7,17
12:45:24.076,,1000,-8,17
12:45:24.086,,1000,-7,17
12:45:24.096,,1000,-8,17
12:45:24.106,,1000,-7,16
12:45:24.116,,1001,-8,16
12:45:24.126,,1000,-7,17
12:45:24.136,,1001,-7,16
12:45:24.146,,1001,-7,16
12:45:24.156,,1001,-7,17
12:45:24.166,,1000,-8,16
12:45:24.176,,1001,-7,17
12:45:24.186,,1000,-7,17
12:45:24.196,,1000,-8,17
12:45:24.206,,1000,-7,16
12:45:24.216,,999,-8,16
12:45:24.226,,1000,-7,17
12:45:24.236,,1000,-7,17
12:45:24.246,,1000,-8,17
12:45:24.256,,1000,-7,17
12:45:24.266,,1001,-8,16
12:45:24.276,,1000,-7,16
12:45:24.286,,1000,-7,16
12:45:24.296,,1000,-8,17
12:45:24.306,,1000,-7,18
12:45:24.316,,1000,-7,16
12:45:24.326,,1000,-7,16
12:45:24.336,,1000,-8,17
12:45:24.346,,1000,-8,16
12:45:24.356,,1001,-8,17
12:45:24.366,,1000,-7,16
12:45:24.376,,1000,-7,17
12:45:24.386,,1000,-8,17
12:45:24.396,,1000,-8,17
12:45:24.406,,1000,-7,16
12:45:24.416,,1000,-7,17
12:45:24.426,,1000,-7,16
12:45:24.436,,1000,-8,17
12:45:24.446,,1000,-7,17
12:45:24.456,,1000,-7,17
12:45:24.466,,1000,-7,17
12:45:24.476,,1000,-7,17
12:45:24.486,,1001,-8,17
12:45:24.496,,999,-6,17
12:45:24.506,,1000,-7,17
12:45:24.516,,1000,-8,17
12:45:24.526,,1000,-7,17
12:45:24.536,,1000,-7,16
12:45:24.546,,1001,-7,17
12:45:24.556,,999,-7,17
12:45:24.566,,1000,-7,17
12:45:24.576,,1000,-7,17
12:45:24.586,,1000,-7,17
12:45:24.596,,1000,-7,18
12:45:24.606,,1001,-7,17
12:45:24.616,,1000,-7,17
12:45:24.626,,1000,-7,18
12:45:24.636,,1000,-7,17
12:45:24.646,,999,-7,17
12:45:24.656,,1000,-8,17
12:45:24.666,,1000,-8,17
12:45:24.676,,1000,-7,18
12:45:24.686,,1001,-7,17
12:45:24.696,,1001,-8,17
12:45:24.706,,999,-8,17
12:45:24.716,,1000,-8,16
12:45:24.726,,1000,-8,17
12:45:24.736,,1000,-7,16
12:45:24.746,,1000,-7,17
12:45:24.756,,1000,-8,16
12:45:24.766,,1000,-8,16
12:45:24.776,,999,-8,17
12:45:24.786,,1001,-7,17
12:45:24.796,,1000,-7,16
12:45:24.806,,1000,-7,17
12:45:24.816,,1000,-8,16
12:45:24.826,,1000,-7,17
12:45:24.836,,1000,-8,17
12:45:24.846,,1000,-7,18
12:45:24.856,,1000,-7,18
12:45:24.866,,950,-945,379
12:45:24.876,,1029,-139,181
12:45:24.886,,1239,203,-320
12:45:24.896,,908,-80,-153
12:45:24.906,,820,96,-86
12:45:24.916,,862,203,97
12:45:24.926,,934,117,79
12:45:24.936,,1131,87,76
12:45:24.946,,1072,93,48
12:45:24.956,,922,111,30
12:45:24.966,,931,97,45
12:45:24.976,,988,61,63
12:45:24.986,,1095,18,111
12:45:24.996,,992,51,106
12:45:25.006,,1022,10,123
12:45:25.016,,1016,8,114
12:45:25.026,,1012,1,90
12:45:25.036,,1005,-6,75
12:45:25.046,,991,-22,55
12:45:25.056,,983,-30,42
12:45:25.066,,976,-38,33
12:45:25.076,,971,-43,37
12:45:25.086,,973,-40,41
12:45:25.096,,981,-33,49
12:45:25.106,,1095,72,-263
12:45:25.116,,1010,-12,0
12:45:25.126,,971,-10,56
12:45:25.136,,1004,-49,31
12:45:25.146,,995,-24,-27
12:45:25.156,,987,-33,-4
12:45:25.166,,985,-33,-5
12:45:25.176,,992,-27,3
12:45:25.186,,984,-33,20
12:45:25.196,,998,-21,0
12:45:25.206,,1006,-13,12
12:45:25.216,,1010,-7,46
12:45:25.226,,1018,0,31
12:45:25.236,,1006,-10,21
12:45:25.246,,1001,-15,26
12:45:25.256,,1001,-16,16
12:45:25.266,,996,-22,7
12:45:25.276,,995,-23,11
12:45:25.286,,1002,-15,17
12:45:25.296,,1000,-18,17
12:45:25.306,,1001,-18,17
12:45:25.316,,999,-17,15
12:45:25.326,,1000,-17,17
12:45:25.336,,1001,-17,17
12:45:25.346,,1000,-17,15
12:45:25.356,,1000,-17,18
12:45:25.366,,1000,-16,17
12:45:25.376,,1000,-18,15
12:45:25.386,,1000,-18,17
12:45:25.396,,1000,-17,17
12:45:25.550,,1000,-17,15
12:45:25.551,,1000,-17,15
12:45:25.553,,1000,-17,15
12:45:25.554,,1000,-17,15
12:45:25.555,,1000,-17,15
12:45:25.557,,1001,-17,16
12:45:25.558,,1001,-17,16
12:45:25.560,,1001,-17,16
12:45:25.561,,1001,-17,16
12:45:25.562,,1001,-17,16
12:45:25.564,,1001,-17,16
12:45:25.565,,1001,-17,16
12:45:25.566,,1000,-17,16
12:45:25.568,,1000,-17,16
12:45:25.569,,1000,-17,16
12:45:25.570,,1000,-17,16
12:45:25.572,,1000,-17,16
12:45:25.576,,999,-18,17
12:45:25.586,,1001,-17,17
12:45:25.596,,1000,-17,16
12:45:25.606,,1000,-17,15
12:45:25.616,,999,-18,17
12:45:25.626,,1000,-17,16
12:45:25.636,,1000,-17,16
12:45:25.646,,1001,-17,16
12:45:25.656,,1000,-17,17
12:45:25.666,,1000,-17,17
12:45:25.676,,1000,-17,17
12:45:25.686,,1000,-17,16
12:45:25.696,,999,-17,16
12:45:25.706,,1000,-17,17
12:45:25.716,,1000,-18,15
12:45:25.726,,1000,-17,15
12:45:25.736,,1000,-18,17
12:45:25.746,,999,-17,16
12:45:25.756,,1000,-18,16
12:45:25.766,,999,-18,16
12:45:25.776,,1001,-17,17
12:45:25.786,,999,-17,16
12:45:25.796,,1001,-17,17
12:45:25.806,,999,-17,17
12:45:25.816,,999,-18,17
12:45:25.826,,1000,-17,16
12:45:25.836,,1000,-18,16
12:45:25.846,,1001,-17,16
12:45:25.856,,1000,-17,17
12:45:25.866,,1000,-16,16
12:45:25.876,,1000,-17,16
12:45:25.886,,1000,-17,16
12:45:25.896,,1000,-17,16
12:45:25.906,,1000,-17,16
12:45:25.916,,1000,-18,17
12:45:25.926,,1001,-18,16
12:45:25.936,,1000,-17,17
12:45:25.946,,1000,-17,17
12:45:25.956,,999,-18,16
12:45:25.966,,999,-17,17
12:45:25.976,,1001,-17,16
12:45:25.986,,999,-17,17
12:45:25.996,,1000,-17,17
12:45:26.006,,1000,-18,16
12:45:26.016,,1000,-17,17
12:45:26.026,,999,-17,17
12:45:26.036,,1001,-17,16
12:45:26.046,,1001,-17,17
12:45:26.056,,1001,-17,16
12:45:26.066,,999,-17,16
12:45:26.076,,999,-17,17
12:45:26.086,,999,-17,16
12:45:26.096,,1000,-17,17
12:45:26.106,,1000,-17,17
12:45:26.116,,1000,-17,17
12:45:26.126,,1001,-17,17
12:45:26.136,,1000,-17,17
12:45:26.146,,1001,-17,17
12:45:26.156,,1000,-18,17
12:45:26.166,,1001,-17,17
12:45:26.176,,1001,-17,16
12:45:26.186,,1000,-17,17
12:45:26.196,,1000,-18,17
12:45:26.206,,1001,-17,16
12:45:26.216,,1000,-17,17
12:45:26.226,,1000,-18,17
12:45:26.236,,1000,-18,17
12:45:26.246,,999,-17,18
12:45:26.256,,999,-18,17
12:45:26.266,,1000,-17,16
12:45:26.276,,1001,-17,16
12:45:26.286,,1000,-18,17
12:45:26.296,,1000,-17,16
12:45:26.306,,1000,-17,16
12:45:26.316,,1000,-17,17
12:45:26.326,,1000,-17,17
12:45:26.336,,1001,-18,16
12:45:26.346,,1001,-17,17
12:45:26.356,,1000,-17,16
12:45:26.366,,1000,-17,17
12:45:26.376,,999,-17,17
12:45:26.386,,999,-18,17
12:45:26.396,,1000,-17,17
12:45:26.406,,1001,-17,15
12:45:26.416,,1001,-17,17
12:45:26.426,,1000,-17,17
12:45:26.436,,1000,-17,17
12:45:26.446,,1001,-18,17
12:45:26.456,,1000,-17,17
12:45:26.466,,1000,-18,17
12:45:26.476,,1000,-18,16
12:45:26.486,,1001,-18,17
12:45:26.496,,1000,-17,16
12:45:26.506,,999,-17,17
12:45:26.516,,1000,-17,17
12:45:26.526,,1000,-17,16
12:45:26.536,,999,-17,17
12:45:26.546,,1000,-17,17
12:45:26.556,,1000,-17,16
12:45:26.566,,1001,-17,17
12:45:26.576,,1001,-17,16
12:45:26.586,,1001,-17,17
12:45:26.596,,1000,-17,17
12:45:26.606,,1000,-17,16
12:45:26.616,,1000,-18,18
12:45:26.626,,1000,-17,18
12:45:26.636,,1000,-18,15
12:45:26.646,,1000,-17,15
12:45:26.656,,1001,-17,17
12:45:26.666,,1000,-18,16
12:45:26.676,,1000,-17,17
12:45:26.686,,1001,-17,16
12:45:26.696,,1000,-17,16
12:45:26.706,,1000,-18,16
12:45:26.716,,999,-18,16
12:45:26.726,,1000,-17,17
12:45:26.736,,1001,-17,16
12:45:26.746,,1000,-17,18
12:45:26.756,,1001,-16,17
12:45:26.766,,1000,-17,16
12:45:26.776,,1000,-17,16
12:45:26.786,,999,-16,17
12:45:26.796,,1000,-18,16
12:45:26.806,,1000,-16,16
12:45:26.816,,1000,-18,17
12:45:26.826,,1000,-16,17
12:45:26.836,,1000,-17,17
12:45:26.846,,1001,-17,17
12:45:26.856,,1000,-17,17
12:45:26.866,,999,-18,16
12:45:26.876,,1000,-17,17
12:45:26.886,,1001,-17,16
12:45:26.896,,1000,-17,17
12:45:26.906,,1000,-17,17
12:45:26.916,,1000,-17,16
12:45:26.926,,1000,-17,16
12:45:26.936,,1000,-17,16
12:45:26.946,,1000,-17,17
12:45:26.956,,999,-17,16
12:45:26.966,,1000,-17,16
12:45:26.976,,1000,-17,17
12:45:26.986,,1001,-17,16
12:45:27.134,,1000,-17,17
12:45:27.135,,1000,-17,17
12:45:27.137,,1000,-17,17
12:45:27.138,,1000,-17,17
12:45:27.139,,1000,-17,17
12:45:27.141,,1000,-17,17
12:45:27.142,,1000,-17,16
12:45:27.143,,1000,-17,16
12:45:27.145,,1000,-17,16
12:45:27.146,,1000,-17,16
12:45:27.147,,1000,-17,16
12:45:27.149,,1000,-17,16
12:45:27.150,,1000,-17,16
12:45:27.152,,1000,-18,17
12:45:27.153,,1000,-18,17
12:45:27.154,,1000,-18,17
12:45:27.156,,1000,-18,17
12:45:27.166,,1000,-17,16
12:45:27.176,,1000,-17,18
12:45:27.186,,1000,-17,16
12:45:27.196,,1000,-17,17
12:45:27.206,,1000,-17,17
12:45:27.216,,1000,-17,16
12:45:27.226,,1000,-17,17
12:45:27.236,,1000,-17,17
12:45:27.246,,999,-18,16
12:45:27.256,,1000,-16,17
12:45:27.266,,1000,-17,16
12:45:27.276,,1000,-17,17
12:45:27.286,,1000,-17,17
12:45:27.296,,1000,-17,17
12:45:27.306,,1000,-17,16
12:45:27.316,,1001,-18,16
12:45:27.326,,1000,-18,17
12:45:27.336,,1000,-17,17
12:45:27.346,,1000,-18,17
12:45:27.356,,1000,-18,16
12:45:27.366,,1001,-17,17
12:45:27.376,,1000,-17,16
12:45:27.386,,1000,-17,17
12:45:27.396,,1000,-17,15
12:45:27.406,,1000,-17,16
12:45:27.416,,1000,-17,17
12:45:27.426,,1000,-18,18
12:45:27.436,,1000,-16,17
12:45:27.446,,1000,-17,17
12:45:27.456,,1000,-17,17
12:45:27.466,,1000,-18,17
12:45:27.476,,1000,-18,16
12:45:27.486,,1000,-17,16
12:45:27.496,,1000,-17,16
12:45:27.506,,1000,-18,16
12:45:27.516,,999,-17,17
12:45:27.526,,999,-17,17
12:45:27.536,,1000,-17,17
12:45:27.546,,1000,-17,18
12:45:27.556,,1001,-17,16
12:45:27.566,,1000,-17,17
12:45:27.576,,1000,-17,16
12:45:27.586,,1001,-17,17
12:45:27.596,,1000,-17,16
12:45:27.606,,1000,-17,16
12:45:27.616,,999,-17,16
12:45:27.626,,1000,-17,16
12:45:27.636,,1000,-18,16
12:45:27.646,,1001,-17,16
12:45:27.656,,1001,-17,17
12:45:27.666,,1001,-17,16
12:45:27.676,,999,-18,16
12:45:27.686,,1001,-16,16
12:45:27.696,,999,-17,16
12:45:27.706,,1000,-17,16
12:45:27.716,,1000,-17,17
12:45:27.726,,1001,-17,16
12:45:27.736,,999,-17,16
12:45:27.746,,1000,-17,16
12:45:27.756,,999,-17,16
12:45:27.766,,999,-18,16
12:45:27.776,,1001,-17,15
12:45:27.786,,1000,-17,17
12:45:27.796,,1001,-17,16
12:45:27.806,,999,-18,16
12:45:27.816,,1000,-17,16
12:45:27.826,,1000,-17,16
12:45:27.836,,1001,-17,16
12:45:27.846,,1000,-17,16
12:45:27.856,,1000,-18,15
12:45:27.866,,1000,-17,15
12:45:27.876,,1000,-17,16
12:45:27.886,,1000,-18,16
12:45:27.896,,1000,-18,16
12:45:27.906,,1000,-17,16
12:45:27.916,,999,-17,16
12:45:27.926,,1001,-17,16
12:45:27.936,,1000,-17,17
12:45:27.946,,1000,-17,17
12:45:27.956,,1000,-18,16
12:45:27.966,,999,-18,17
12:45:27.976,,999,-17,15
12:45:27.986,,1000,-17,16
12:45:27.996,,1002,-14,22
12:45:28.006,,1002,-14,24
12:45:28.016,,1041,19,-31
12:45:28.026,,1073,46,-12
12:45:28.036,,1066,35,-2
12:45:28.046,,1020,-35,56
12:45:28.056,,984,-74,-4
12:45:28.066,,982,-104,-13
12:45:28.076,,1007,-87,-8
12:45:28.086,,1038,-70,11
12:45:28.096,,1049,-60,-7
12:45:28.106,,1038,-50,-15
12:45:28.116,,1027,-51,-138
12:45:28.126,,958,15,-64
12:45:28.136,,1076,-57,7
12:45:28.146,,998,-55,-41
12:45:28.156,,1045,-84,-26
12:45:28.166,,1018,-77,-25
12:45:28.176,,1025,-68,-8
12:45:28.186,,1024,-84,8
12:45:28.196,,1014,-90,29
12:45:28.206,,995,-90,47
12:45:28.216,,994,-68,63
12:45:28.226,,991,-42,72
12:45:28.236,,1011,-72,73
12:45:28.246,,997,-108,65
12:45:28.256,,997,-100,69
12:45:28.266,,1004,-97,63
12:45:28.276,,1016,-91,59
12:45:28.286,,1014,-91,67
12:45:28.296,,1010,-89,89
12:45:28.306,,1003,-89,114
12:45:28.316,,988,-95,124
12:45:28.326,,937,-41,116
12:45:28.336,,899,-80,148
12:45:28.346,,874,-156,201
12:45:28.356,,833,-204,260
12:45:28.366,,786,-208,305
12:45:28.376,,605,-145,382
12:45:28.386,,499,-90,367
12:45:28.396,,493,-99,422
12:45:28.406,,469,-111,416
12:45:28.416,,446,-76,424
12:45:28.426,,452,-17,492
12:45:28.436,,437,-17,592
12:45:28.446,,628,-59,728
12:45:28.456,,164,-60,232
12:45:28.466,,244,16,302
12:45:28.476,,159,12,281
12:45:28.486,,191,-2,445
12:45:28.496,,121,-7,364
12:45:28.506,,150,267,212
12:45:28.516,,204,420,297
12:45:28.526,,25,90,41
12:45:28.536,,-18,45,438
12:45:28.546,,-81,40,238
12:45:28.556,,-106,85,186
12:45:28.566,,49,-20,-391
12:45:28.720,,11,-26,998
12:45:28.721,,11,-26,998
12:45:28.723,,11,-26,998
12:45:28.724,,11,-26,998
12:45:28.725,,11,-26,998
12:45:28.727,,11,-26,998
12:45:28.728,,14,-23,998
12:45:28.730,,14,-23,998
12:45:28.731,,14,-23,998
12:45:28.732,,14,-23,998
12:45:28.734,,14,-23,998
12:45:28.735,,14,-23,998
12:45:28.736,,14,-23,998
12:45:28.738,,12,-22,1001
12:45:28.739,,12,-22,1001
12:45:28.740,,12,-22,1001
12:45:28.742,,12,-22,1001
12:45:28.746,,12,-22,1001
12:45:28.756,,12,-22,1002
12:45:28.766,,12,-21,1001
12:45:28.776,,15,-19,1001
12:45:28.786,,13,-21,1001
12:45:28.796,,11,-22,1002
12:45:28.806,,11,-21,1002
12:45:28.816,,11,-22,1001
12:45:28.826,,10,-22,1001
12:45:28.836,,11,-22,1001
12:45:28.846,,11,-21,1002
12:45:28.856,,12,-21,1001
12:45:28.866,,12,-21,1002
12:45:28.876,,11,-21,1001
12:45:28.886,,12,-22,1002
12:45:28.896,,11,-20,1001
12:45:28.906,,12,-22,1002
12:45:28.916,,12,-21,1001
12:45:28.926,,13,-21,1001
12:45:28.936,,12,-22,1002
12:45:28.946,,13,-21,1001
12:45:28.956,,11,-21,1002
12:45:28.966,,12,-21,1002
12:45:28.976,,12,-22,1001
12:45:28.986,,12,-21,1001
12:45:28.996,,12,-21,1001
12:45:29.006,,12,-22,1001
12:45:29.016,,12,-22,1001
12:45:29.026,,12,-21,1001
12:45:29.036,,12,-21,1001
12:45:29.046,,12,-21,1002
12:45:29.056,,13,-21,1001
12:45:29.066,,12,-22,1001
12:45:29.076,,13,-21,1001
12:45:29.086,,12,-22,1001
12:45:29.096,,12,-21,1003
12:45:29.106,,11,-22,1001
12:45:29.116,,12,-21,1002
12:45:29.126,,12,-21,1002
12:45:29.136,,12,-21,1001
12:45:29.146,,12,-21,1001
12:45:29.156,,12,-21,1002
12:45:29.166,,12,-22,1002
12:45:29.176,,12,-22,1003
12:45:29.186,,12,-22,1001
12:45:29.196,,12,-21,1000
12:45:29.206,,12,-21,1002
12:45:29.216,,12,-21,1001
12:45:29.226,,12,-22,1001
12:45:29.236,,12,-21,1001
12:45:29.246,,12,-20,1002
12:45:29.256,,12,-21,1001
12:45:29.266,,13,-21,1002
12:45:29.276,,12,-22,1002
12:45:29.286,,12,-21,1001
12:45:29.296,,12,-22,1002
12:45:29.306,,13,-21,1002
12:45:29.316,,12,-21,1001
12:45:29.326,,12,-22,1001
12:45:29.336,,12,-22,1002
12:45:29.346,,12,-21,1001
12:45:29.356,,12,-21,1001
12:45:29.366,,12,-21,1001
12:45:29.376,,13,-21,1001
12:45:29.386,,12,-22,1001
12:45:29.396,,12,-21,1001
12:45:29.406,,12,-22,1002
12:45:29.416,,13,-21,1002
12:45:29.426,,11,-22,1001
12:45:29.436,,12,-22,1001
12:45:29.446,,12,-22,1002
12:45:29.456,,12,-21,1001
12:45:29.466,,13,-21,1002
12:45:29.476,,12,-21,1001
12:45:29.486,,12,-21,1001
12:45:29.496,,12,-21,1002
12:45:29.506,,12,-22,1001
12:45:29.516,,12,-21,1002
12:45:29.526,,12,-21,1003
12:45:29.536,,12,-21,1001
12:45:29.546,,12,-21,1002
12:45:29.556,,12,-21,1002
12:45:29.566,,13,-21,1001
12:45:29.576,,12,-22,1002
12:45:29.586,,12,-21,1002
12:45:29.596,,12,-22,1002
12:45:29.606,,12,-21,1002
12:45:29.616,,12,-22,1001
12:45:29.626,,12,-22,1002
12:45:29.636,,12,-21,1001
12:45:29.646,,12,-21,1001
12:45:29.656,,13,-22,1001
12:45:29.666,,12,-21,1003
12:45:29.676,,12,-21,1001
12:45:29.686,,13,-21,1002
12:45:29.696,,12,-21,1001
12:45:29.706,,12,-21,1003
12:45:29.716,,11,-21,1001
12:45:29.726,,12,-21,1003
12:45:29.736,,12,-21,1002
12:45:29.746,,13,-20,1001
12:45:29.756,,12,-22,1002
12:45:29.766,,11,-21,1002
12:45:29.776,,12,-21,1002
12:45:29.786,,13,-22,1001
12:45:29.796,,12,-21,1001
12:45:29.806,,12,-22,1001
12:45:29.816,,12,-22,1002
12:45:29.826,,12,-21,1002
12:45:29.836,,12,-21,1001
12:45:29.846,,12,-22,1002
12:45:29.856,,12,-21,1002
12:45:29.866,,12,-21,1002
12:45:29.876,,12,-22,1002
12:45:29.886,,12,-21,1001
12:45:29.896,,12,-21,1003
12:45:29.906,,12,-21,1002
12:45:29.916,,12,-22,1002
12:45:29.926,,12,-21,1002
12:45:29.936,,11,-22,1001
12:45:29.946,,12,-21,1001
12:45:29.956,,12,-21,1002
12:45:29.966,,12,-22,1002
12:45:29.976,,12,-21,1002
12:45:29.986,,12,-22,1002
12:45:29.996,,12,-21,1002
12:45:30.005,,12,-20,1002
12:45:30.015,,12,-22,1002
12:45:30.026,,12,-23,1002
12:45:30.035,,12,-21,1001
12:45:30.045,,12,-21,1001
12:45:30.056,,11,-21,1001
12:45:30.065,,11,-22,1002
12:45:30.075,,12,-21,1001
12:45:30.086,,13,-22,1002
12:45:30.095,,13,-21,1002
12:45:30.105,,12,-21,1002
12:45:30.115,,12,-21,1002
12:45:30.125,,12,-21,1002
12:45:30.135,,12,-21,1002
12:45:30.145,,12,-22,1003
12:45:30.295,,11,-20,1001
12:45:30.297,,12,-21,1001
12:45:30.298,,12,-21,1001
12:45:30.300,,12,-21,1001
12:45:30.301,,12,-21,1001
12:45:30.302,,12,-21,1001
12:45:30.304,,12,-21,1001
12:45:30.305,,12,-22,1002
12:45:30.306,,12,-22,1002
12:45:30.308,,12,-22,1002
12:45:30.309,,12,-22,1002
12:45:30.310,,12,-22,1002
12:45:30.312,,12,-22,1002
12:45:30.313,,12,-22,1002
12:45:30.315,,12,-21,1002
12:45:30.316,,12,-21,1002
12:45:30.317,,12,-21,1002
12:45:30.325,,12,-21,1001
12:45:30.335,,12,-21,1002
12:45:30.345,,12,-22,1002
12:45:30.355,,13,-22,1000
12:45:30.365,,11,-22,1002
12:45:30.375,,12,-21,1002
12:45:30.385,,12,-21,1001
12:45:30.395,,12,-21,1001
12:45:30.405,,12,-22,1002
12:45:30.415,,12,-22,1001
12:45:30.425,,12,-22,1002
12:45:30.435,,12,-20,1001
12:45:30.445,,12,-21,1001
12:45:30.455,,12,-21,1002
12:45:30.465,,12,-22,1002
12:45:30.475,,12,-21,1002
12:45:30.485,,12,-21,1001
12:45:30.495,,12,-21,1002
12:45:30.505,,11,-21,1003
12:45:30.515,,13,-22,1001
12:45:30.525,,12,-21,1003
12:45:30.535,,11,-20,1002
12:45:30.545,,12,-22,1001
12:45:30.555,,13,-21,1002
12:45:30.565,,13,-21,1001
12:45:30.575,,12,-21,1002
12:45:30.585,,12,-21,1002
12:45:30.595,,12,-21,1002
12:45:30.605,,12,-21,1002
12:45:30.615,,12,-21,1002
12:45:30.625,,12,-21,1002
12:45:30.635,,13,-22,1002
12:45:30.645,,13,-22,1001
12:45:30.655,,12,-21,1002
12:45:30.665,,12,-21,1002
12:45:30.675,,12,-22,1001
12:45:30.685,,12,-21,1002
12:45:30.695,,13,-21,1003
12:45:30.705,,12,-20,1003
12:45:30.715,,12,-22,1003
12:45:30.725,,12,-22,1002
12:45:30.735,,12,-22,1002
12:45:30.745,,12,-21,1001
12:45:30.755,,12,-21,1002
12:45:30.765,,12,-21,1002
12:45:30.775,,12,-21,1001
12:45:30.785,,13,-21,1003
12:45:30.795,,13,-21,1002
12:45:30.805,,13,-21,1002
12:45:30.815,,12,-21,1001
12:45:30.825,,13,-22,1002
12:45:30.835,,13,-21,1002
12:45:30.845,,11,-21,1002
12:45:30.855,,13,-21,1003
12:45:30.865,,12,-21,1002
12:45:30.875,,12,-21,1002
12:45:30.885,,12,-21,1003
12:45:30.895,,12,-21,1002
12:45:30.905,,12,-21,1003
12:45:30.915,,12,-21,1002
12:45:30.925,,12,-22,1002
12:45:30.935,,13,-22,1001
12:45:30.945,,11,-22,1002
12:45:30.955,,13,-21,1002
12:45:30.965,,12,-21,1002
12:45:30.975,,12,-21,1002
12:45:30.985,,12,-21,1002
12:45:30.995,,12,-21,1003
12:45:31.005,,12,-21,1002
12:45:31.015,,12,-21,1002
12:45:31.025,,13,-22,1002
12:45:31.035,,12,-21,1002
12:45:31.045,,12,-22,1002
12:45:31.055,,12,-21,1003
12:45:31.065,,12,-22,1003
12:45:31.075,,11,-22,1002
12:45:31.085,,13,-21,1001
12:45:31.095,,12,-21,1001
12:45:31.105,,13,-21,1002
12:45:31.115,,12,-22,1002
12:45:31.125,,12,-22,1002
12:45:31.135,,12,-21,1002
12:45:31.145,,12,-22,1002
12:45:31.155,,13,-21,1002
12:45:31.165,,11,-22,1001
12:45:31.175,,12,-22,1002
12:45:31.185,,12,-21,1002
12:45:31.195,,12,-20,1002
12:45:31.205,,13,-22,1003
12:45:31.215,,12,-21,1002
12:45:31.225,,12,-21,1003
12:45:31.235,,12,-22,1001
12:45:31.245,,12,-21,1001
12:45:31.255,,12,-21,1003
12:45:31.265,,12,-22,1003
12:45:31.275,,12,-21,1001
12:45:31.285,,12,-21,1002
12:45:31.295,,12,-21,1003
12:45:31.305,,13,-21,1002
12:45:31.315,,12,-22,1003
12:45:31.325,,11,-22,1003
12:45:31.335,,12,-21,1002
12:45:31.345,,12,-22,1001
12:45:31.355,,11,-21,1003
12:45:31.365,,12,-21,1003
12:45:31.375,,13,-21,1002
12:45:31.385,,11,-21,1002
12:45:31.395,,13,-21,1002
12:45:31.405,,12,-22,1002
12:45:31.415,,13,-21,1002
12:45:31.425,,12,-22,1002
12:45:31.435,,12,-22,1002
12:45:31.445,,12,-21,1002
12:45:31.455,,12,-21,1002
12:45:31.465,,12,-22,1002
12:45:31.475,,12,-21,1002
12:45:31.485,,12,-21,1003
12:45:31.495,,12,-21,1003
12:45:31.505,,12,-22,1003
12:45:31.515,,12,-21,1002
12:45:31.525,,12,-20,1003
12:45:31.535,,12,-21,1001
12:45:31.545,,13,-22,1001
12:45:31.555,,13,-22,1003
12:45:31.565,,12,-21,1003
12:45:31.575,,12,-21,1002
12:45:31.585,,13,-21,1002
12:45:31.595,,13,-22,1003
12:45:31.605,,12,-21,1002
12:45:31.615,,12,-22,1003
12:45:31.625,,12,-21,1001
12:45:31.635,,11,-22,1003
12:45:31.645,,11,-21,1002
12:45:31.655,,12,-20,1001
12:45:31.665,,11,-22,1003
12:45:31.675,,13,-21,1003
12:45:31.685,,11,-21,1003
12:45:31.695,,12,-21,1002
12:45:31.705,,11,-22,1002
12:45:31.715,,12,-21,1002
12:45:31.871,,12,-21,1002
12:45:31.873,,12,-21,1002
12:45:31.874,,12,-21,1002
12:45:31.875,,12,-21,1002
12:45:31.877,,12,-21,1002
12:45:31.878,,12,-21,1002
12:45:31.880,,12,-21,1002
12:45:31.881,,12,-21,1002
12:45:31.882,,13,-22,1003
12:45:31.884,,13,-22,1003
12:45:31.885,,13,-22,1003
12:45:31.886,,13,-22,1003
12:45:31.888,,13,-22,1003
12:45:31.889,,13,-22,1003
12:45:31.890,,13,-22,1003
12:45:31.892,,13,-22,1001
12:45:31.893,,13,-22,1001
12:45:31.895,,13,-22,1001
12:45:31.905,,12,-21,1002
12:45:31.915,,12,-21,1002
12:45:31.925,,12,-21,1002
12:45:31.935,,12,-21,1001
12:45:31.945,,12,-21,1003
12:45:31.955,,13,-21,1002
12:45:31.965,,12,-21,1002
12:45:31.975,,11,-22,1003
12:45:31.985,,11,-21,1002
12:45:31.995,,13,-22,1002
12:45:32.005,,11,-21,1001
12:45:32.015,,12,-21,1003
12:45:32.025,,13,-22,1002
12:45:32.035,,11,-22,1002
12:45:32.045,,11,-22,1002
12:45:32.055,,12,-22,1003
12:45:32.065,,11,-21,1003
12:45:32.075,,12,-22,1003
12:45:32.085,,12,-21,1002
12:45:32.095,,13,-21,1003
12:45:32.105,,12,-21,1001
12:45:32.115,,12,-21,1002
12:45:32.125,,12,-22,1002
12:45:32.135,,12,-21,1002
12:45:32.145,,13,-21,1004
12:45:32.155,,13,-22,1003
12:45:32.165,,13,-21,1002
12:45:32.175,,12,-21,1003
12:45:32.185,,12,-22,1002
12:45:32.195,,11,-22,1004
12:45:32.205,,11,-21,1003
12:45:32.215,,12,-22,1002
12:45:32.225,,13,-21,1003
12:45:32.235,,12,-21,1003
12:45:32.245,,12,-22,1001
12:45:32.255,,13,-21,1001
12:45:32.265,,12,-22,1003
12:45:32.275,,12,-21,1002
12:45:32.285,,12,-21,1002
12:45:32.295,,12,-21,1002
12:45:32.305,,12,-22,1003
12:45:32.315,,13,-22,1002
12:45:32.325,,13,-21,1003
12:45:32.335,,12,-21,1002
12:45:32.345,,12,-21,1003
12:45:32.355,,12,-21,1001
12:45:32.365,,13,-23,1002
12:45:32.375,,12,-21,1002
12:45:32.385,,12,-22,1002
12:45:32.395,,11,-22,1003
12:45:32.405,,12,-21,1002
12:45:32.415,,12,-22,1002
12:45:32.425,,12,-21,1002
12:45:32.435,,12,-22,1001
12:45:32.445,,12,-20,1002
12:45:32.455,,21,-25,1003
12:45:32.465,,141,-123,1003
12:45:32.475,,152,-50,1000
12:45:32.485,,39,-12,1004
12:45:32.495,,20,-11,1005
12:45:32.505,,15,-4,1000
12:45:32.515,,-37,-1,1000
12:45:32.525,,-98,3,1006
12:45:32.535,,-107,15,1005
12:45:32.545,,-73,-2,1002
12:45:32.555,,15,-22,1000
12:45:32.565,,13,-20,1002
12:45:32.575,,8,-12,1005
12:45:32.585,,3,17,999
12:45:32.595,,28,-53,1000
12:45:32.605,,7,19,1083
12:45:32.615,,-9,4,1045
12:45:32.625,,-13,-5,1026
12:45:32.635,,-48,8,1020
12:45:32.645,,-50,56,1065
12:45:32.655,,-63,40,1025
12:45:32.665,,-63,32,1022
12:45:32.675,,-72,21,1038
12:45:32.685,,-86,8,1057
12:45:32.695,,-90,3,1076
12:45:32.705,,-87,-3,1098
12:45:32.715,,-73,-26,1113
12:45:32.725,,-56,-51,1135
12:45:32.735,,44,-167,1149
12:45:32.745,,42,-185,1127
12:45:32.755,,38,-181,1116
12:45:32.765,,4,-152,1065
12:45:32.775,,-42,-118,1024
12:45:32.785,,-103,-81,1009
12:45:32.795,,-142,-71,1002
12:45:32.805,,-184,-88,973
12:45:32.815,,-236,-104,934
12:45:32.825,,-293,-127,897
12:45:32.835,,-358,-140,886
12:45:32.845,,-402,-135,890
12:45:32.855,,-409,-134,899
12:45:32.865,,-394,-135,944
12:45:32.875,,-373,-132,971
12:45:32.885,,-362,-125,972
12:45:32.895,,-372,-102,926
12:45:32.905,,-407,-106,862
12:45:32.915,,-436,-135,807
12:45:32.925,,-454,-139,798
12:45:32.935,,-461,-146,809
12:45:32.945,,-472,-152,826
12:45:32.955,,-506,-142,804
12:45:32.965,,-516,-139,789
12:45:32.975,,-511,-151,782
12:45:32.985,,-553,-174,747
12:45:32.995,,-665,-205,688
12:45:33.005,,-656,-240,671
12:45:33.015,,-630,-277,680
12:45:33.025,,-598,-295,671
12:45:33.035,,-609,-248,661
12:45:33.045,,-650,-191,625
12:45:33.055,,-676,-164,593
12:45:33.065,,-718,-165,544
12:45:33.075,,-775,-71,510
12:45:33.085,,-816,-15,504
12:45:33.095,,-867,-116,626
12:45:33.105,,-844,-174,643
12:45:33.115,,-770,-172,548
12:45:33.125,,-712,-143,482
12:45:33.135,,-714,-138,448
12:45:33.145,,-713,-107,424
12:45:33.155,,-729,-74,397
12:45:33.165,,-793,-46,342
12:45:33.175,,-870,-32,278
12:45:33.185,,-952,-35,236
12:45:33.195,,-1247,-47,289
12:45:33.205,,-958,47,151
12:45:33.215,,-955,-69,12
12:45:33.225,,-1025,-160,89
12:45:33.235,,-1017,-136,120
12:45:33.245,,-1039,-81,239
12:45:33.255,,-977,-18,250
12:45:33.265,,-957,-11,222
12:45:33.414,,-994,-11,64
12:45:33.415,,-994,-11,64
12:45:33.417,,-994,-11,64
12:45:33.418,,-994,-11,64
12:45:33.419,,-994,-11,64
12:45:33.421,,-994,-11,64
12:45:33.422,,-993,-16,64
12:45:33.424,,-993,-16,64
12:45:33.425,,-993,-16,64
12:45:33.426,,-993,-16,64
12:45:33.428,,-993,-16,64
12:45:33.429,,-993,-16,64
12:45:33.430,,-993,-16,64
12:45:33.432,,-1003,-4,-31
12:45:33.433,,-1003,-4,-31
12:45:33.434,,-1003,-4,-31
12:45:33.436,,-1003,-4,-31
12:45:33.445,,-999,-9,-58
12:45:33.455,,-997,-10,2
12:45:33.465,,-998,-10,-18
12:45:33.475,,-998,-9,-31
12:45:33.485,,-998,-9,-46
12:45:33.495,,-998,-9,-32
12:45:33.505,,-998,-9,-25
12:45:33.515,,-999,-2,-7
12:45:33.525,,-998,2,-7
12:45:33.535,,-997,-3,-47
12:45:33.545,,-997,-4,-54
12:45:33.555,,-998,-2,-44
12:45:33.565,,-998,-3,-31
12:45:33.575,,-998,-4,-28
12:45:33.585,,-998,-16,-18
12:45:33.595,,-998,-26,-9
12:45:33.605,,-998,-6,-7
12:45:33.615,,-999,-5,-7
12:45:33.625,,-998,25,-15
12:45:33.635,,-998,30,-24
12:45:33.645,,-998,10,-16
12:45:33.655,,-1001,-12,5
12:45:33.665,,-997,-35,22
12:45:33.675,,-996,-44,42
12:45:33.685,,-995,-66,60
12:45:33.695,,-997,-72,60
12:45:33.705,,-997,-17,49
12:45:33.715,,-996,-14,56
12:45:33.725,,-998,-10,32
12:45:33.735,,-998,-11,29
12:45:33.745,,-999,-5,27
12:45:33.755,,-997,0,31
12:45:33.765,,-997,-7,33
12:45:33.775,,-997,-3,40
12:45:33.785,,-996,-32,57
12:45:33.795,,-997,-22,55
12:45:33.805,,-996,-3,45
12:45:33.815,,-998,-11,32
12:45:33.825,,-997,-9,31
12:45:33.835,,-997,-8,36
12:45:33.845,,-998,-9,37
12:45:33.855,,-997,-9,38
12:45:33.865,,-998,-9,37
12:45:33.875,,-997,-9,35
12:45:33.885,,-997,-8,37
12:45:33.895,,-997,-6,37
12:45:33.905,,-998,-7,39
12:45:33.915,,-997,-9,40
12:45:33.925,,-997,-8,41
12:45:33.935,,-997,-7,42
12:45:33.945,,-997,-8,40
12:45:33.955,,-997,-8,44
12:45:33.965,,-997,-7,41
12:45:33.975,,-997,-8,38
12:45:33.985,,-998,-8,37
12:45:33.995,,-997,-7,37
12:45:34.005,,-998,-8,34
12:45:34.015,,-997,-8,40
12:45:34.025,,-998,-10,39
12:45:34.035,,-998,-9,34
12:45:34.045,,-998,-9,32
12:45:34.055,,-997,-9,32
12:45:34.065,,-997,-8,34
12:45:34.075,,-998,-10,33
12:45:34.085,,-997,-9,33
12:45:34.095,,-998,-9,32
12:45:34.105,,-998,-10,37
12:45:34.115,,-998,-9,32
12:45:34.125,,-998,-10,32
12:45:34.135,,-997,-9,32
12:45:34.145,,-998,-9,32
12:45:34.155,,-1000,13,13
12:45:34.165,,-996,0,31
12:45:34.175,,-997,-5,39
12:45:34.185,,-998,-2,48
12:45:34.195,,-996,5,48
12:45:34.205,,-997,-7,40
12:45:34.215,,-997,-7,36
12:45:34.225,,-997,-13,40
12:45:34.235,,-997,-13,47
12:45:34.245,,-997,-14,53
12:45:34.255,,-996,-16,53
12:45:34.265,,-997,-6,48
12:45:34.275,,-997,-7,46
12:45:34.285,,-998,-8,48
12:45:34.295,,-997,-6,47
12:45:34.305,,-997,2,43
12:45:34.315,,-999,3,40
12:45:34.325,,-997,3,38
12:45:34.335,,-997,-8,43
12:45:34.345,,-998,-21,50
12:45:34.355,,-998,-27,53
12:45:34.365,,-997,-21,53
12:45:34.375,,-997,-7,45
12:45:34.385,,-997,-5,45
12:45:34.395,,-997,-5,41
12:45:34.405,,-998,-4,40
12:45:34.415,,-997,1,30
12:45:34.425,,-997,1,37
12:45:34.435,,-998,2,32
12:45:34.445,,-997,-4,38
12:45:34.455,,-997,-1,41
12:45:34.465,,-998,-14,46
12:45:34.475,,-996,-13,52
12:45:34.485,,-997,-8,46
12:45:34.495,,-997,-8,48
12:45:34.505,,-997,-6,47
12:45:34.515,,-997,-1,41
12:45:34.525,,-998,-1,39
12:45:34.535,,-999,-16,50
12:45:34.545,,-1003,7,38
12:45:34.555,,-981,23,11
12:45:34.565,,-1007,16,23
12:45:34.575,,-1010,-10,56
12:45:34.585,,-1006,-34,60
12:45:34.595,,-977,45,38
12:45:34.605,,-982,23,11
12:45:34.615,,-993,-19,17
12:45:34.625,,-1018,-21,19
12:45:34.635,,-998,-17,60
12:45:34.645,,-997,-14,38
12:45:34.655,,-996,-1,34
12:45:34.665,,-997,-11,74
12:45:34.675,,-999,-31,32
12:45:34.685,,-997,-6,15
12:45:34.695,,-999,-18,71
12:45:34.705,,-992,-1,75
12:45:34.715,,-1006,-38,40
12:45:34.725,,-981,-3,83
12:45:34.735,,-1007,-7,50
12:45:34.745,,-996,-13,37
12:45:34.755,,-996,10,53
12:45:34.765,,-997,23,52
12:45:34.775,,-993,24,99
12:45:34.785,,-999,22,26
12:45:34.795,,-998,-19,42
12:45:34.805,,-997,-14,41
12:45:34.815,,-998,-28,34
12:45:34.825,,-995,-7,47
12:45:34.835,,-1000,-23,38
12:45:34.845,,-994,3,36
12:45:34.855,,-997,-12,30
12:45:34.865,,-998,-13,33
12:45:35.018,,-1010,-5,8
12:45:35.019,,-1010,-5,8
12:45:35.020,,-1010,-5,8
12:45:35.022,,-1010,-5,8
12:45:35.023,,-1010,-5,8
12:45:35.025,,-1010,-5,8
12:45:35.026,,-1010,-5,8
12:45:35.027,,-1006,-11,-3
12:45:35.029,,-1006,-11,-3
12:45:35.030,,-1006,-11,-3
12:45:35.031,,-1006,-11,-3
12:45:35.033,,-1006,-11,-3
12:45:35.034,,-1006,-11,-3
12:45:35.035,,-1006,-16,3
12:45:35.037,,-1003,-16,3
12:45:35.038,,-1003,-16,3
12:45:35.039,,-1003,-16,3
12:45:35.045,,-998,-22,4
12:45:35.055,,-988,-33,4
12:45:35.065,,-988,-34,12
12:45:35.075,,-1000,-25,16
12:45:35.085,,-1007,-18,14
12:45:35.095,,-1013,-13,15
12:45:35.105,,-1015,-19,19
12:45:35.115,,-1012,-22,24
12:45:35.125,,-1026,-44,28
12:45:35.135,,-1014,-45,23
12:45:35.145,,-981,-53,35
12:45:35.155,,-965,-64,45
12:45:35.165,,-956,-67,36
12:45:35.175,,-978,-81,34
12:45:35.185,,-966,-88,41
12:45:35.195,,-941,-92,27
12:45:35.205,,-943,-96,20
12:45:35.215,,-937,-68,19
12:45:35.225,,-999,-43,3
12:45:35.235,,-1030,-11,0
12:45:35.245,,-1042,1,-2
12:45:35.255,,-1041,1,-1
12:45:35.265,,-1028,-9,12
12:45:35.275,,-1013,-24,27
12:45:35.285,,-1015,-22,47
12:45:35.295,,-1042,-41,-7
12:45:35.305,,-1099,88,-51
12:45:35.315,,-1014,-28,173
12:45:35.325,,-911,-113,180
12:45:35.335,,-853,-125,62
12:45:35.345,,-921,-94,46
12:45:35.355,,-996,-67,49
12:45:35.365,,-1023,-48,9
12:45:35.375,,-1023,-46,-25
12:45:35.385,,-1018,-55,-19
12:45:35.395,,-1016,-51,6
12:45:35.405,,-1012,-50,27
12:45:35.415,,-998,-49,33
12:45:35.425,,-993,-49,32
12:45:35.435,,-1011,-54,42
12:45:35.445,,-1013,-56,52
12:45:35.455,,-1007,-65,58
12:45:35.465,,-987,-65,50
12:45:35.475,,-988,-67,50
12:45:35.485,,-994,-64,40
12:45:35.495,,-998,-61,24
12:45:35.505,,-991,-64,22
12:45:35.515,,-987,-70,30
12:45:35.525,,-995,-69,34
12:45:35.535,,-1005,-61,36
12:45:35.545,,-999,-72,36
12:45:35.555,,-1003,-55,17
12:45:35.565,,-1003,-56,13
12:45:35.575,,-1006,-63,22
12:45:35.585,,-991,-69,29
12:45:35.595,,-987,-55,31
12:45:35.605,,-999,-67,47
12:45:35.615,,-995,-71,49
12:45:35.625,,-992,-89,49
12:45:35.635,,-981,-107,50
12:45:35.645,,-983,-120,51
12:45:35.655,,-990,-119,50
12:45:35.665,,-995,-101,32
12:45:35.675,,-999,-83,35
12:45:35.685,,-1014,-72,17
12:45:35.695,,-1008,-79,10
12:45:35.705,,-1002,-85,15
12:45:35.715,,-1002,-89,20
12:45:35.725,,-993,-98,35
12:45:35.735,,-984,-108,45
12:45:35.745,,-986,-109,41
12:45:35.755,,-977,-119,30
12:45:35.765,,-972,-125,39
12:45:35.775,,-990,-109,30
12:45:35.785,,-995,-106,31
12:45:35.795,,-991,-112,34
12:45:35.805,,-984,-119,30
12:45:35.815,,-998,-110,19
12:45:35.825,,-999,-106,25
12:45:35.835,,-983,-94,40
12:45:35.845,,-953,-55,44
12:45:35.855,,-1055,-111,57
12:45:35.865,,-989,-122,25
12:45:35.875,,-960,-122,14
12:45:35.885,,-1005,-129,24
12:45:35.895,,-986,-142,42
12:45:35.905,,-964,-163,67
12:45:35.915,,-965,-200,45
12:45:35.925,,-939,-175,25
12:45:35.935,,-991,-124,50
12:45:35.945,,-973,-141,-2
12:45:35.955,,-952,-161,20
12:45:35.965,,-1005,-108,18
12:45:35.975,,-1059,-53,33
12:45:35.985,,-1052,-61,44
12:45:35.995,,-1019,-92,33
12:45:36.005,,-993,-119,32
12:45:36.015,,-968,-144,33
12:45:36.025,,-951,-145,14
12:45:36.035,,-1042,111,-51
12:45:36.045,,-1231,218,102
12:45:36.055,,-1162,146,176
12:45:36.065,,-946,99,76
12:45:36.075,,-983,-158,51
12:45:36.085,,-866,-749,118
12:45:36.095,,-766,-612,18
12:45:36.105,,-860,-273,81
12:45:36.115,,-1119,-29,182
12:45:36.125,,-1069,-57,184
12:45:36.135,,-992,-170,99
12:45:36.145,,-1053,-167,79
12:45:36.155,,-1135,-92,116
12:45:36.165,,-1170,7,126
12:45:36.175,,-1255,31,94
12:45:36.185,,-1312,-19,34
12:45:36.195,,-1336,-125,16
12:45:36.205,,-1265,-133,-10
12:45:36.215,,-1252,-135,19
12:45:36.225,,-1225,-138,121
12:45:36.235,,-1197,-149,208
12:45:36.245,,-1158,-187,235
12:45:36.255,,-1196,-223,260
12:45:36.265,,-1235,-238,320
12:45:36.275,,-1262,-269,322
12:45:36.285,,-1309,-298,249
12:45:36.295,,-1376,-268,186
12:45:36.305,,-1455,-234,145
12:45:36.315,,-1545,-207,96
12:45:36.325,,-1517,-242,-12
12:45:36.335,,-1373,-313,-19
12:45:36.345,,-1227,-480,56
12:45:36.355,,-1159,-596,110
12:45:36.365,,-1057,-638,143
12:45:36.375,,-955,-603,180
12:45:36.385,,-897,-543,185
12:45:36.395,,-814,-502,192
12:45:36.548,,483,-585,17
12:45:36.549,,483,-585,17
12:45:36.551,,483,-585,17
12:45:36.552,,483,-585,17
12:45:36.553,,483,-585,17
12:45:36.555,,483,-585,17
12:45:36.556,,483,-585,17
12:45:36.557,,551,-635,73
12:45:36.559,,551,-635,73
12:45:36.560,,551,-635,73
12:45:36.561,,551,-635,73
12:45:36.563,,551,-635,73
12:45:36.564,,551,-635,73
12:45:36.566,,551,-635,73
12:45:36.567,,614,-685,135
12:45:36.568,,614,-685,135
12:45:36.570,,614,-685,135
12:45:36.575,,614,-685,135
12:45:36.585,,712,-687,139
12:45:36.595,,724,-709,52
12:45:36.605,,659,-700,3
12:45:36.615,,549,-742,-6
12:45:36.625,,563,-749,-9
12:45:36.635,,679,-719,31
12:45:36.645,,787,-683,56
12:45:36.655,,799,-614,29
12:45:36.665,,765,-553,-26
12:45:36.675,,769,-519,-63
12:45:36.685,,821,-493,-71
12:45:36.695,,857,-481,-84
12:45:36.705,,785,-540,-22
12:45:36.715,,716,-899,-173
12:45:36.725,,547,-950,-280
12:45:36.735,,431,-923,-216
12:45:36.745,,499,-850,-53
12:45:36.755,,673,-796,74
12:45:36.765,,791,-693,140
12:45:36.775,,885,-586,161
12:45:36.785,,929,-519,92
12:45:36.795,,885,-490,10
12:45:36.805,,844,-559,15
12:45:36.815,,791,-579,-40
12:45:36.825,,697,-628,-84
12:45:36.835,,628,-623,-177
12:45:36.845,,546,-542,-153
12:45:36.855,,542,-573,-150
12:45:36.865,,625,-542,-123
12:45:36.875,,719,-493,-123
12:45:36.885,,794,-428,-150
12:45:36.895,,846,-373,-189
12:45:36.905,,909,-343,-242
12:45:36.915,,906,-319,-250
12:45:36.925,,888,-270,-276
12:45:36.935,,875,-252,-343
12:45:36.945,,917,-211,-386
12:45:36.955,,992,-111,-372
12:45:36.965,,1073,-16,-373
12:45:36.975,,1090,-11,-426
12:45:36.985,,1006,-40,-462
12:45:36.995,,913,-103,-459
12:45:37.005,,838,-149,-447
12:45:37.015,,775,-242,-426
12:45:37.025,,761,-339,-378
12:45:37.035,,796,-346,-338
12:45:37.045,,845,-335,-321
12:45:37.055,,882,-314,-338
12:45:37.065,,891,-274,-356
12:45:37.075,,887,-261,-370
12:45:37.085,,879,-247,-427
12:45:37.095,,879,-212,-449
12:45:37.105,,870,-219,-451
12:45:37.115,,832,-226,-472
12:45:37.125,,778,-242,-478
12:45:37.135,,745,-261,-471
12:45:37.145,,758,-273,-467
12:45:37.155,,778,-271,-464
12:45:37.165,,767,-260,-470
12:45:37.175,,761,-249,-487
12:45:37.185,,784,-247,-503
12:45:37.195,,811,-230,-502
12:45:37.205,,851,-215,-495
12:45:37.215,,897,-216,-488
12:45:37.225,,929,-210,-472
12:45:37.235,,902,-231,-461
12:45:37.245,,832,-288,-440
12:45:37.255,,787,-323,-404
12:45:37.265,,779,-361,-359
12:45:37.275,,793,-396,-343
12:45:37.285,,815,-414,-329
12:45:37.295,,841,-417,-317
12:45:37.305,,866,-405,-308
12:45:37.315,,890,-395,-319
12:45:37.325,,898,-392,-327
12:45:37.335,,901,-380,-344
12:45:37.345,,903,-373,-354
12:45:37.355,,887,-381,-373
12:45:37.365,,868,-393,-367
12:45:37.375,,862,-406,-350
12:45:37.385,,852,-423,-335
12:45:37.395,,837,-435,-327
12:45:37.405,,820,-445,-327
12:45:37.415,,822,-456,-321
12:45:37.425,,830,-449,-308
12:45:37.435,,837,-435,-308
12:45:37.445,,846,-425,-323
12:45:37.455,,867,-406,-340
12:45:37.465,,886,-382,-337
12:45:37.475,,911,-360,-343
12:45:37.485,,900,-334,-356
12:45:37.495,,862,-334,-371
12:45:37.505,,826,-368,-374
12:45:37.515,,794,-395,-375
12:45:37.525,,789,-421,-358
12:45:37.535,,819,-415,-333
12:45:37.545,,849,-400,-332
12:45:37.555,,868,-385,-338
12:45:37.565,,879,-361,-352
12:45:37.575,,890,-343,-368
12:45:37.585,,895,-338,-368
12:45:37.595,,900,-332,-372
12:45:37.605,,890,-342,-371
12:45:37.615,,849,-352,-369
12:45:37.625,,836,-371,-372
12:45:37.635,,826,-384,-375
12:45:37.645,,836,-389,-363
12:45:37.655,,845,-392,-344
12:45:37.665,,850,-397,-343
12:45:37.675,,824,-399,-355
12:45:37.685,,807,-410,-373
12:45:37.695,,825,-400,-371
12:45:37.705,,859,-382,-349
12:45:37.715,,884,-371,-349
12:45:37.725,,879,-366,-367
12:45:37.735,,863,-354,-381
12:45:37.745,,856,-353,-382
12:45:37.755,,847,-359,-386
12:45:37.765,,831,-368,-394
12:45:37.775,,813,-356,-409
12:45:37.785,,827,-356,-383
12:45:37.795,,855,-372,-375
12:45:37.805,,862,-365,-380
12:45:37.815,,860,-362,-373
12:45:37.825,,859,-390,-396
12:45:37.835,,844,-389,-411
12:45:37.845,,835,-358,-364
12:45:37.855,,862,-385,-330
12:45:37.865,,850,-431,-405
12:45:37.875,,832,-409,-353
12:45:38.027,,909,-335,-313
12:45:38.028,,909,-335,-313
12:45:38.030,,909,-335,-313
12:45:38.031,,909,-335,-313
12:45:38.032,,915,-331,-314
12:45:38.034,,915,-331,-314
12:45:38.035,,915,-331,-314
12:45:38.036,,915,-331,-314
12:45:38.038,,915,-331,-314
12:45:38.039,,915,-331,-314
12:45:38.041,,915,-331,-326
12:45:38.042,,905,-326,-326
12:45:38.043,,905,-326,-326
12:45:38.045,,905,-326,-326
12:45:38.046,,905,-326,-326
12:45:38.047,,905,-326,-326
12:45:38.049,,905,-326,-326
12:45:38.055,,899,-323,-343
12:45:38.065,,903,-316,-358
12:45:38.075,,897,-308,-367
12:45:38.085,,891,-317,-374
12:45:38.095,,874,-316,-379
12:45:38.105,,865,-323,-384
12:45:38.115,,850,-328,-387
12:45:38.125,,858,-352,-358
12:45:38.135,,865,-341,-339
12:45:38.145,,857,-351,-345
12:45:38.155,,857,-363,-365
12:45:38.165,,861,-367,-366
12:45:38.175,,868,-369,-359
12:45:38.185,,878,-363,-353
12:45:38.195,,882,-371,-347
12:45:38.205,,881,-375,-367
12:45:38.215,,865,-378,-369
12:45:38.225,,860,-374,-362
12:45:38.235,,865,-369,-372
12:45:38.245,,862,-362,-387
12:45:38.255,,862,-346,-381
12:45:38.265,,853,-340,-370
12:45:38.275,,855,-358,-376
12:45:38.285,,864,-368,-382
12:45:38.295,,869,-365,-370
12:45:38.305,,871,-364,-369
12:45:38.315,,865,-371,-368
12:45:38.325,,849,-380,-382
12:45:38.335,,827,-378,-396
12:45:38.345,,822,-378,-407
12:45:38.355,,828,-374,-406
12:45:38.365,,843,-378,-401
12:45:38.375,,857,-375,-371
12:45:38.385,,852,-394,-359
12:45:38.395,,841,-419,-358
12:45:38.405,,823,-429,-355
12:45:38.415,,813,-438,-357
12:45:38.425,,821,-448,-373
12:45:38.435,,812,-445,-371
12:45:38.445,,817,-433,-360
12:45:38.455,,826,-434,-350
12:45:38.465,,829,-443,-357
12:45:38.475,,823,-443,-372
12:45:38.485,,811,-429,-378
12:45:38.495,,807,-426,-379
12:45:38.505,,831,-437,-378
12:45:38.515,,836,-419,-377
12:45:38.525,,843,-418,-378
12:45:38.535,,851,-427,-392
12:45:38.545,,846,-420,-381
12:45:38.555,,839,-428,-375
12:45:38.565,,813,-428,-369
12:45:38.575,,794,-429,-359
12:45:38.585,,794,-434,-364
12:45:38.595,,801,-439,-386
12:45:38.605,,816,-435,-411
12:45:38.615,,825,-411,-418
12:45:38.625,,837,-405,-398
12:45:38.635,,834,-416,-395
12:45:38.645,,831,-425,-388
12:45:38.655,,836,-435,-381
12:45:38.665,,839,-444,-384
12:45:38.675,,826,-437,-388
12:45:38.685,,811,-420,-386
12:45:38.695,,803,-410,-402
12:45:38.705,,804,-407,-408
12:45:38.715,,806,-412,-395
12:45:38.725,,811,-424,-408
12:45:38.735,,821,-433,-420
12:45:38.745,,822,-440,-426
12:45:38.755,,815,-427,-432
12:45:38.765,,779,-419,-401
12:45:38.775,,768,-430,-405
12:45:38.785,,788,-427,-391
12:45:38.795,,807,-440,-361
12:45:38.805,,814,-460,-362
12:45:38.815,,766,-464,-335
12:45:38.825,,804,-481,-421
12:45:38.835,,819,-469,-431
12:45:38.845,,806,-444,-379
12:45:38.855,,800,-434,-370
12:45:38.865,,781,-441,-358
12:45:38.875,,774,-460,-378
12:45:38.885,,759,-470,-361
12:45:38.895,,834,-527,-397
12:45:38.905,,855,-496,-419
12:45:38.915,,868,-497,-432
12:45:38.925,,852,-501,-452
12:45:38.935,,803,-501,-457
12:45:38.945,,737,-499,-458
12:45:38.955,,695,-489,-456
12:45:38.965,,713,-494,-449
12:45:38.975,,755,-508,-442
12:45:38.985,,776,-497,-426
12:45:38.995,,766,-480,-420
12:45:39.005,,740,-484,-424
12:45:39.015,,738,-522,-472
12:45:39.025,,727,-565,-486
12:45:39.035,,701,-555,-488
12:45:39.045,,715,-591,-496
12:45:39.055,,709,-609,-508
12:45:39.065,,688,-607,-498
12:45:39.075,,659,-614,-493
12:45:39.085,,643,-602,-493
12:45:39.095,,638,-581,-491
12:45:39.105,,648,-575,-483
12:45:39.115,,652,-552,-483
12:45:39.125,,686,-539,-489
12:45:39.135,,722,-560,-519
12:45:39.145,,698,-536,-504
12:45:39.155,,650,-566,-517
12:45:39.165,,624,-607,-539
12:45:39.175,,606,-620,-541
12:45:39.185,,591,-590,-539
12:45:39.195,,589,-580,-536
12:45:39.205,,596,-588,-555
12:45:39.215,,605,-586,-574
12:45:39.225,,626,-569,-572
12:45:39.235,,622,-544,-564
12:45:39.245,,587,-537,-543
12:45:39.255,,553,-510,-538
12:45:39.265,,565,-541,-553
12:45:39.275,,611,-640,-560
12:45:39.285,,598,-621,-584
12:45:39.295,,555,-618,-584
12:45:39.305,,521,-634,-602
12:45:39.315,,490,-647,-635
12:45:39.325,,470,-636,-655
12:45:39.335,,450,-642,-668
12:45:39.345,,459,-652,-684
12:45:39.492,,176,-618,-736
12:45:39.493,,176,-618,-736
12:45:39.494,,176,-618,-736
12:45:39.496,,176,-618,-736
12:45:39.497,,120,-637,-761
12:45:39.498,,120,-637,-761
12:45:39.500,,120,-637,-761
12:45:39.501,,120,-637,-761
12:45:39.503,,120,-637,-761
12:45:39.504,,120,-637,-761
12:45:39.505,,120,-637,-761
12:45:39.507,,54,-642,-835
12:45:39.508,,54,-642,-835
12:45:39.509,,54,-642,-835
12:45:39.511,,54,-642,-835
12:45:39.512,,54,-642,-835
12:45:39.514,,54,-642,-835
12:45:39.524,,-6,-574,-849
12:45:39.534,,-97,-495,-785
12:45:39.544,,-84,-530,-776
12:45:39.554,,-45,-578,-769
12:45:39.564,,-9,-605,-730
12:45:39.574,,97,-601,-621
12:45:39.584,,91,-597,-618
12:45:39.594,,6,-593,-648
12:45:39.604,,-101,-537,-731
12:45:39.614,,-203,-453,-785
12:45:39.624,,-275,-375,-795
12:45:39.634,,-322,-393,-823
12:45:39.644,,-321,-465,-861
12:45:39.654,,-301,-482,-880
12:45:39.664,,-267,-432,-872
12:45:39.674,,-266,-427,-805
12:45:39.684,,-274,-443,-758
12:45:39.694,,-307,-415,-940
12:45:39.704,,-346,-297,-1212
12:45:39.714,,-405,-283,-929
12:45:39.724,,-369,-277,-877
12:45:39.734,,-372,-290,-772
12:45:39.744,,-401,-355,-778
12:45:39.754,,-400,-379,-762
12:45:39.764,,-385,-354,-737
12:45:39.774,,-362,-344,-737
12:45:39.784,,-351,-349,-744
12:45:39.794,,-379,-296,-809
12:45:39.804,,-384,-261,-775
12:45:39.814,,-380,-265,-724
12:45:39.824,,-362,-291,-685
12:45:39.834,,-383,-284,-672
12:45:39.844,,-401,-234,-655
12:45:39.854,,-442,-234,-574
12:45:39.864,,-362,-235,-715
12:45:39.874,,-350,-218,-645
12:45:39.884,,-276,-210,-681
12:45:39.894,,-214,-185,-611
12:45:39.904,,-182,-145,-549
12:45:39.914,,-148,31,-458
12:45:39.924,,-119,111,-478
12:45:39.934,,-146,185,-469
12:45:39.944,,-175,254,-478
12:45:39.954,,-189,318,-495
12:45:39.964,,-179,369,-479
12:45:39.974,,-199,399,-415
12:45:39.984,,-275,403,-292
12:45:39.994,,-381,388,-133
12:45:40.004,,-271,398,-7
12:45:40.014,,-549,564,166
12:45:40.024,,-732,597,263
12:45:40.034,,-750,554,207
12:45:40.044,,-812,584,-84
12:45:40.054,,-740,628,-206
12:45:40.064,,-696,699,-335
12:45:40.074,,-608,750,-365
12:45:40.084,,-631,888,-318
12:45:40.094,,-679,1026,-244
12:45:40.104,,-718,1093,-239
12:45:40.114,,-725,1158,-230
12:45:40.124,,-685,1162,-166
12:45:40.134,,-676,1152,-138
12:45:40.144,,-726,1145,-224
12:45:40.154,,-606,1166,-313
12:45:40.164,,-784,1245,-378
12:45:40.174,,-1158,1366,-417
12:45:40.184,,-957,1216,-487
12:45:40.194,,-808,1245,-470
12:45:40.204,,-745,1408,-517
12:45:40.214,,-655,1504,-656
12:45:40.224,,-529,1516,-653
12:45:40.234,,-380,1491,-654
12:45:40.244,,-429,1527,-578
12:45:40.254,,-481,1476,-550
12:45:40.264,,-577,1425,-513
12:45:40.274,,-590,1265,-453
12:45:40.284,,-557,1044,-325
12:45:40.294,,-549,878,-230
12:45:40.304,,-425,811,-217
12:45:40.314,,-363,890,-262
12:45:40.324,,-395,951,-243
12:45:40.334,,-376,986,-269
12:45:40.344,,-181,960,-284
12:45:40.354,,-45,901,-252
12:45:40.364,,-20,902,-232
12:45:40.374,,-56,910,-236
12:45:40.384,,-212,981,-307
12:45:40.394,,-286,1090,-309
12:45:40.404,,-232,1166,-212
12:45:40.414,,-64,1170,-210
12:45:40.424,,65,1187,-137
12:45:40.434,,72,1173,-182
12:45:40.444,,54,1051,-257
12:45:40.454,,45,942,-255
12:45:40.464,,50,844,-258
12:45:40.474,,100,783,-422
12:45:40.484,,91,1032,-577
12:45:40.494,,-13,1137,-445
12:45:40.504,,112,1028,-410
12:45:40.514,,170,998,-332
12:45:40.524,,116,964,-277
12:45:40.534,,45,906,-259
12:45:40.544,,-5,888,-285
12:45:40.554,,-15,838,-372
12:45:40.564,,50,800,-438
12:45:40.574,,113,764,-481
12:45:40.584,,176,741,-540
12:45:40.594,,218,762,-570
12:45:40.604,,195,776,-592
12:45:40.614,,240,787,-607
12:45:40.624,,288,806,-624
12:45:40.634,,456,807,-573
12:45:40.644,,400,735,-635
12:45:40.654,,270,695,-664
12:45:40.664,,160,690,-604
12:45:40.674,,139,643,-574
12:45:40.684,,147,652,-552
12:45:40.694,,181,689,-531
12:45:40.704,,154,815,-534
12:45:40.714,,203,842,-589
12:45:40.724,,192,866,-613
12:45:40.734,,188,937,-592
12:45:40.744,,211,975,-553
12:45:40.754,,202,1011,-516
12:45:40.764,,198,1051,-465
12:45:40.774,,228,1060,-419
12:45:40.784,,272,1031,-347
12:45:40.794,,107,995,-345
12:45:40.804,,49,903,-270
12:45:40.958,,-61,990,-173
12:45:40.959,,-61,990,-173
12:45:40.960,,-61,990,-173
12:45:40.962,,-61,990,-173
12:45:40.963,,-48,1006,-137
12:45:40.965,,-48,1006,-137
12:45:40.966,,-48,1006,-137
12:45:40.967,,-48,1006,-137
12:45:40.969,,-48,1006,-137
12:45:40.970,,-48,1006,-137
12:45:40.971,,-48,1006,-137
12:45:40.973,,-23,1005,-103
12:45:40.974,,-23,1005,-103
12:45:40.975,,-23,1005,-103
12:45:40.977,,-23,1005,-103
12:45:40.978,,-23,1005,-103
12:45:40.980,,-23,1005,-103
12:45:40.984,,-18,984,-62
12:45:40.994,,-36,965,-36
12:45:41.004,,-33,946,25
12:45:41.014,,-25,938,63
12:45:41.024,,-19,933,68
12:45:41.034,,-51,939,60
12:45:41.044,,-83,953,101
12:45:41.054,,-103,975,130
12:45:41.064,,-113,989,162
12:45:41.074,,-94,1020,161
12:45:41.084,,-63,1007,167
12:45:41.094,,-54,998,180
12:45:41.104,,-56,976,215
12:45:41.114,,-39,957,248
12:45:41.124,,0,962,291
12:45:41.134,,-10,955,287
12:45:41.144,,-52,952,289
12:45:41.154,,-79,950,293
12:45:41.164,,-65,971,298
12:45:41.174,,-73,973,310
12:45:41.184,,-87,963,345
12:45:41.194,,-100,938,402
12:45:41.204,,-111,882,422
12:45:41.214,,-94,879,428
12:45:41.224,,-76,885,424
12:45:41.234,,-93,887,447
12:45:41.244,,-104,890,467
12:45:41.254,,-108,894,453
12:45:41.264,,-90,908,441
12:45:41.274,,-77,907,434
12:45:41.284,,-89,915,428
12:45:41.294,,-95,922,403
12:45:41.304,,-88,926,393
12:45:41.314,,-77,947,371
12:45:41.324,,-24,994,324
12:45:41.334,,0,973,278
12:45:41.344,,39,945,249
12:45:41.354,,31,939,245
12:45:41.364,,62,924,303
12:45:41.374,,66,942,275
12:45:41.384,,8,975,257
12:45:41.394,,52,989,273
12:45:41.404,,39,997,224
12:45:41.414,,-31,970,229
12:45:41.424,,-65,932,230
12:45:41.434,,-10,871,231
12:45:41.444,,-47,873,279
12:45:41.454,,30,868,241
12:45:41.464,,-36,917,214
12:45:41.474,,-142,956,350
12:45:41.484,,-180,927,384
12:45:41.494,,-202,863,393
12:45:41.504,,-152,880,374
12:45:41.514,,-121,1174,250
12:45:41.524,,182,1146,150
12:45:41.534,,-2,824,261
12:45:41.544,,17,909,276
12:45:41.554,,10,892,248
12:45:41.564,,-23,868,335
12:45:41.574,,-53,863,327
12:45:41.584,,-38,900,282
12:45:41.594,,-35,935,314
12:45:41.604,,-10,965,306
12:45:41.614,,-1,961,295
12:45:41.624,,-20,946,261
12:45:41.634,,-39,938,247
12:45:41.644,,-39,927,247
12:45:41.654,,-48,920,247
12:45:41.664,,-28,948,240
12:45:41.674,,-23,998,254
12:45:41.684,,-29,996,269
12:45:41.694,,-10,992,272
12:45:41.704,,-7,987,273
12:45:41.714,,-17,961,286
12:45:41.724,,0,950,285
12:45:41.734,,2,939,275
12:45:41.744,,14,928,269
12:45:41.754,,15,921,271
12:45:41.764,,5,927,281
12:45:41.774,,2,926,290
12:45:41.784,,0,929,291
12:45:41.794,,0,942,289
12:45:41.804,,6,951,296
12:45:41.814,,8,954,306
12:45:41.824,,16,953,304
12:45:41.834,,17,941,308
12:45:41.844,,46,943,319
12:45:41.854,,53,938,328
12:45:41.864,,45,934,335
12:45:41.874,,32,938,344
12:45:41.884,,28,939,351
12:45:41.894,,27,932,358
12:45:41.904,,21,929,366
12:45:41.914,,16,935,378
12:45:41.924,,18,912,386
12:45:41.934,,36,922,390
12:45:41.944,,32,930,389
12:45:41.954,,27,930,391
12:45:41.964,,25,924,398
12:45:41.974,,32,916,403
12:45:41.984,,36,911,399
12:45:41.994,,36,908,395
12:45:42.004,,30,904,393
12:45:42.014,,24,902,395
12:45:42.024,,24,906,398
12:45:42.034,,31,909,393
12:45:42.044,,29,910,389
12:45:42.054,,30,912,387
12:45:42.064,,37,915,382
12:45:42.074,,37,918,375
12:45:42.084,,42,922,368
12:45:42.094,,46,927,364
12:45:42.104,,45,924,367
12:45:42.114,,43,908,369
12:45:42.124,,38,906,368
12:45:42.134,,30,904,371
12:45:42.144,,23,898,372
12:45:42.154,,16,899,373
12:45:42.164,,15,901,372
12:45:42.174,,19,906,374
12:45:42.184,,31,919,376
12:45:42.194,,42,926,370
12:45:42.204,,40,928,367
12:45:42.214,,45,928,365
12:45:42.224,,33,917,369
12:45:42.234,,31,917,373
12:45:42.244,,30,916,374
12:45:42.254,,22,917,383
12:45:42.264,,21,915,389
12:45:42.274,,22,910,389
12:45:42.284,,21,905,386
12:45:42.294,,20,905,385
12:45:42.304,,28,912,384
12:45:42.314,,37,916,377
12:45:42.324,,34,918,369
12:45:42.334,,30,918,368
12:45:42.344,,24,916,371
12:45:42.354,,32,919,372
12:45:42.364,,41,921,370
12:45:42.374,,42,918,369
12:45:42.384,,35,914,369
12:45:42.394,,28,914,372
12:45:42.404,,26,913,373
12:45:42.554,,32,898,333
12:45:42.556,,32,898,333
12:45:42.557,,32,898,333
12:45:42.558,,33,865,321
12:45:42.560,,33,865,321
12:45:42.561,,33,865,321
12:45:42.563,,33,865,321
12:45:42.564,,33,865,321
12:45:42.565,,33,865,321
12:45:42.567,,33,865,321
12:45:42.568,,-9,879,284
12:45:42.569,,-9,879,284
12:45:42.571,,-9,879,284
12:45:42.572,,-9,879,284
12:45:42.573,,-9,879,284
12:45:42.575,,-9,879,284
12:45:42.576,,-9,879,284
12:45:42.584,,-44,882,327
12:45:42.594,,-32,932,355
12:45:42.604,,23,982,340
12:45:42.614,,86,964,347
12:45:42.624,,87,953,349
12:45:42.634,,79,946,338
12:45:42.644,,72,943,328
12:45:42.654,,58,949,311
12:45:42.664,,51,952,311
12:45:42.674,,49,970,319
12:45:42.684,,50,969,315
12:45:42.694,,50,964,316
12:45:42.704,,36,942,320
12:45:42.714,,11,913,316
12:45:42.724,,11,925,316
12:45:42.734,,29,958,320
12:45:42.744,,44,953,323
12:45:42.754,,40,949,316
12:45:42.764,,43,959,308
12:45:42.774,,52,970,311
12:45:42.784,,47,983,306
12:45:42.794,,50,984,275
12:45:42.804,,57,971,256
12:45:42.814,,54,953,257
12:45:42.824,,43,950,279
12:45:42.834,,41,966,280
12:45:42.844,,44,970,264
12:45:42.854,,60,980,250
12:45:42.864,,60,1008,233
12:45:42.874,,32,996,222
12:45:42.884,,19,1001,226
12:45:42.894,,6,1012,230
12:45:42.904,,-20,984,227
12:45:42.914,,-18,967,224
12:45:42.924,,-9,982,218
12:45:42.934,,-18,998,206
12:45:42.944,,-28,1011,179
12:45:42.954,,-46,1012,171
12:45:42.964,,-69,999,171
12:45:42.974,,-91,995,178
12:45:42.984,,-63,992,205
12:45:42.994,,-49,1133,78
12:45:43.004,,-135,1170,145
12:45:43.014,,-106,1184,203
12:45:43.024,,-123,1222,210
12:45:43.034,,-145,1265,180
12:45:43.044,,-143,1293,167
12:45:43.054,,-118,1310,129
12:45:43.064,,-115,1314,121
12:45:43.074,,-110,1287,121
12:45:43.084,,-111,1286,125
12:45:43.094,,-137,1311,127
12:45:43.104,,-154,1323,91
12:45:43.114,,-152,1330,49
12:45:43.124,,-195,1400,30
12:45:43.134,,-180,1418,17
12:45:43.144,,-144,1399,8
12:45:43.154,,-122,1354,8
12:45:43.164,,-119,1305,-22
12:45:43.174,,-135,1271,-31
12:45:43.184,,-185,1254,3
12:45:43.194,,-218,1211,21
12:45:43.204,,-223,1152,16
12:45:43.214,,-227,1129,39
12:45:43.224,,-249,1094,41
12:45:43.234,,-237,1034,17
12:45:43.244,,-219,970,0
12:45:43.254,,-204,902,-21
12:45:43.264,,-219,888,-29
12:45:43.274,,-256,884,-34
12:45:43.284,,-284,887,-31
12:45:43.294,,-329,869,-58
12:45:43.304,,-333,831,-78
12:45:43.314,,-332,808,-75
12:45:43.324,,-331,798,-64
12:45:43.334,,-318,765,-69
12:45:43.344,,-321,729,-72
12:45:43.354,,-341,715,-71
12:45:43.364,,-357,695,-68
12:45:43.374,,-386,670,-70
12:45:43.384,,-381,685,-49
12:45:43.394,,-373,684,-23
12:45:43.404,,-389,676,1
12:45:43.414,,-422,660,17
12:45:43.424,,-452,649,34
12:45:43.434,,-465,663,52
12:45:43.444,,-467,664,82
12:45:43.454,,-486,664,99
12:45:43.464,,-508,657,116
12:45:43.474,,-509,633,118
12:45:43.484,,-495,594,128
12:45:43.494,,-496,571,148
12:45:43.504,,-520,489,153
12:45:43.514,,-565,463,145
12:45:43.524,,-577,440,153
12:45:43.534,,-586,424,170
12:45:43.544,,-599,416,183
12:45:43.554,,-627,413,204
12:45:43.564,,-677,407,227
12:45:43.574,,-700,386,227
12:45:43.584,,-687,364,210
12:45:43.594,,-664,343,186
12:45:43.604,,-649,321,163
12:45:43.614,,-655,298,158
12:45:43.624,,-663,273,149
12:45:43.634,,-678,243,153
12:45:43.644,,-688,255,152
12:45:43.654,,-704,275,172
12:45:43.664,,-820,274,181
12:45:43.674,,-1028,256,154
12:45:43.684,,-1132,232,136
12:45:43.694,,-1050,210,114
12:45:43.704,,-921,209,137
12:45:43.714,,-841,230,192
12:45:43.724,,-796,226,215
12:45:43.734,,-799,210,230
12:45:43.744,,-834,222,238
12:45:43.754,,-871,239,256
12:45:43.764,,-884,261,299
12:45:43.774,,-889,280,309
12:45:43.784,,-902,290,275
12:45:43.794,,-898,281,226
12:45:43.804,,-879,304,171
12:45:43.814,,-831,312,130
12:45:43.824,,-808,299,94
12:45:43.834,,-805,296,64
12:45:43.844,,-808,304,42
12:45:43.854,,-815,326,40
12:45:43.864,,-833,372,51
12:45:43.874,,-843,444,76
12:45:43.884,,-846,531,105
12:45:43.894,,-859,639,126
12:45:43.904,,-851,647,115
12:45:43.914,,-838,639,96
12:45:43.924,,-821,627,64
12:45:43.934,,-800,615,31
12:45:43.944,,-777,606,9
12:45:43.954,,-767,593,-15
12:45:44.096,,-647,812,-131
12:45:44.097,,-647,812,-131
12:45:44.098,,-590,773,-127
12:45:44.100,,-590,773,-127
12:45:44.101,,-590,773,-127
12:45:44.102,,-590,773,-127
12:45:44.104,,-590,773,-127
12:45:44.105,,-590,773,-127
12:45:44.106,,-590,773,-127
12:45:44.108,,-549,737,-103
12:45:44.109,,-549,737,-103
12:45:44.111,,-549,737,-103
12:45:44.112,,-549,737,-103
12:45:44.113,,-549,737,-103
12:45:44.115,,-549,737,-103
12:45:44.116,,-549,737,-103
12:45:44.124,,-538,716,-111
12:45:44.134,,-535,707,-149
12:45:44.144,,-520,713,-280
12:45:44.154,,-473,812,-313
12:45:44.164,,-480,860,-303
12:45:44.174,,-479,885,-278
12:45:44.184,,-475,907,-267
12:45:44.194,,-476,936,-273
12:45:44.204,,-494,938,-270
12:45:44.214,,-519,925,-256
12:45:44.224,,-531,915,-257
12:45:44.234,,-531,911,-253
12:45:44.244,,-509,918,-209
12:45:44.254,,-479,949,-174
12:45:44.264,,-473,967,-141
12:45:44.274,,-511,986,-81
12:45:44.284,,-613,976,-51
12:45:44.294,,-600,981,-60
12:45:44.304,,-566,977,-56
12:45:44.314,,-544,963,-23
12:45:44.324,,-524,949,-27
12:45:44.334,,-543,910,-40
12:45:44.344,,-561,876,-42
12:45:44.354,,-557,849,-25
12:45:44.364,,-559,822,-13
12:45:44.374,,-561,798,9
12:45:44.384,,-582,788,36
12:45:44.394,,-617,785,66
12:45:44.404,,-691,816,108
12:45:44.414,,-670,840,111
12:45:44.424,,-636,836,95
12:45:44.434,,-511,804,72
12:45:44.444,,-690,874,60
12:45:44.454,,-716,920,41
12:45:44.464,,-663,951,5
12:45:44.474,,-589,957,-33
12:45:44.484,,-518,940,-72
12:45:44.494,,-503,914,-119
12:45:44.504,,-504,887,-161
12:45:44.514,,-506,871,-174
12:45:44.524,,-498,875,-164
12:45:44.534,,-498,983,-90
12:45:44.544,,-520,998,-79
12:45:44.554,,-503,996,-71
12:45:44.564,,-473,1000,-36
12:45:44.574,,-462,999,0
12:45:44.584,,-461,990,35
12:45:44.594,,-486,960,76
12:45:44.604,,-458,917,85
12:45:44.614,,-445,882,72
12:45:44.624,,-457,880,65
12:45:44.634,,-477,904,70
12:45:44.644,,-492,906,85
12:45:44.654,,-524,932,92
12:45:44.664,,-579,919,41
12:45:44.674,,-580,902,99
12:45:44.684,,-581,872,48
12:45:44.694,,-576,896,5
12:45:44.704,,-541,880,24
12:45:44.714,,-553,862,2
12:45:44.724,,-539,861,26
12:45:44.734,,-498,874,6
12:45:44.744,,-457,908,-34
12:45:44.754,,-473,904,-53
12:45:44.764,,-517,876,-46
12:45:44.774,,-530,882,-30
12:45:44.784,,-517,905,-55
12:45:44.794,,-548,890,-59
12:45:44.804,,-562,882,-50
12:45:44.814,,-581,870,1
12:45:44.824,,-579,859,42
12:45:44.834,,-566,829,45
12:45:44.844,,-556,783,26
12:45:44.854,,-565,747,-11
12:45:44.864,,-558,714,-28
12:45:44.874,,-554,702,-49
12:45:44.884,,-513,684,-81
12:45:44.894,,-412,633,-138
12:45:44.904,,-440,648,-61
12:45:44.914,,-484,665,68
12:45:44.924,,-635,652,-3
12:45:44.934,,-619,671,-31
12:45:44.944,,-573,723,-49
12:45:44.954,,-553,774,-52
12:45:44.964,,-566,803,-67
12:45:44.974,,-563,817,-71
12:45:44.984,,-532,811,-49
12:45:44.994,,-491,796,-67
12:45:45.004,,-462,800,-99
12:45:45.014,,-465,821,-114
12:45:45.024,,-494,824,-115
12:45:45.034,,-513,825,-92
12:45:45.044,,-579,856,-104
12:45:45.054,,-601,907,-70
12:45:45.064,,-582,890,-76
12:45:45.074,,-560,861,-72
12:45:45.084,,-530,817,-73
12:45:45.094,,-499,773,-80
12:45:45.104,,-462,785,-94
12:45:45.114,,-448,798,-98
12:45:45.124,,-449,812,-86
12:45:45.134,,-437,822,-100
12:45:45.144,,-404,819,-98
12:45:45.154,,-386,832,-101
12:45:45.164,,-401,875,-112
12:45:45.174,,-496,915,-55
12:45:45.184,,-515,946,-44
12:45:45.194,,-480,949,-62
12:45:45.204,,-483,949,-82
12:45:45.214,,-430,986,-101
12:45:45.224,,-447,1048,-85
12:45:45.234,,-524,1070,-85
12:45:45.244,,-475,1057,-114
12:45:45.254,,-464,993,-97
12:45:45.264,,-360,922,-65
12:45:45.274,,-315,824,-24
12:45:45.284,,-409,788,31
12:45:45.294,,-542,842,21
12:45:45.304,,-470,970,-21
12:45:45.314,,-481,981,31
12:45:45.324,,-527,988,88
12:45:45.334,,-554,1016,132
12:45:45.344,,-560,1049,157
12:45:45.354,,-525,1029,147
12:45:45.364,,-488,998,144
12:45:45.374,,-501,948,140
12:45:45.384,,-494,929,131
12:45:45.394,,-475,912,80
12:45:45.404,,-459,910,46
12:45:45.414,,-445,913,29
12:45:45.424,,-436,904,19
12:45:45.434,,-477,873,69
12:45:45.444,,-508,866,86
12:45:45.454,,-548,851,82
12:45:45.464,,-551,846,74
12:45:45.474,,-525,838,92
12:45:45.621,,-617,733,76
12:45:45.623,,-617,733,76
12:45:45.624,,-617,733,76
12:45:45.626,,-617,733,76
12:45:45.627,,-617,733,76
12:45:45.628,,-636,743,82
12:45:45.630,,-636,743,82
12:45:45.631,,-636,743,82
12:45:45.632,,-636,743,82
12:45:45.634,,-636,743,82
12:45:45.635,,-636,743,82
12:45:45.637,,-636,743,82
12:45:45.638,,-654,745,98
12:45:45.639,,-654,745,98
12:45:45.641,,-654,745,98
12:45:45.642,,-654,745,98
12:45:45.644,,-654,745,98
12:45:45.654,,-660,726,102
12:45:45.664,,-659,698,105
12:45:45.674,,-650,684,120
12:45:45.684,,-641,690,112
12:45:45.694,,-642,682,102
12:45:45.704,,-644,674,97
12:45:45.714,,-643,681,85
12:45:45.724,,-634,693,71
12:45:45.734,,-637,691,67
12:45:45.744,,-636,677,75
12:45:45.754,,-632,665,81
12:45:45.764,,-630,669,74
12:45:45.774,,-635,691,77
12:45:45.784,,-653,719,88
12:45:45.794,,-655,733,97
12:45:45.804,,-642,723,99
12:45:45.814,,-641,706,87
12:45:45.824,,-637,695,68
12:45:45.834,,-631,705,60
12:45:45.844,,-619,708,65
12:45:45.854,,-611,701,84
12:45:45.864,,-612,695,95
12:45:45.874,,-619,697,99
12:45:45.884,,-629,710,95
12:45:45.894,,-636,730,90
12:45:45.904,,-640,745,92
12:45:45.914,,-653,758,89
12:45:45.924,,-661,783,89
12:45:45.934,,-656,808,99
12:45:45.944,,-641,772,94
12:45:45.954,,-634,762,99
12:45:45.964,,-629,758,101
12:45:45.974,,-622,754,100
12:45:45.984,,-633,763,106
12:45:45.994,,-652,792,116
12:45:46.004,,-658,815,131
12:45:46.014,,-672,823,127
12:45:46.024,,-667,814,114
12:45:46.034,,-645,789,89
12:45:46.044,,-626,785,58
12:45:46.054,,-623,766,49
12:45:46.064,,-649,758,76
12:45:46.074,,-714,768,175
12:45:46.084,,-725,771,178
12:45:46.094,,-724,777,179
12:45:46.104,,-703,752,170
12:45:46.114,,-676,722,147
12:45:46.124,,-666,734,124
12:45:46.134,,-678,754,128
12:45:46.144,,-683,755,155
12:45:46.154,,-723,735,207
12:45:46.164,,-769,668,322
12:45:46.174,,-717,623,244
12:45:46.184,,-757,621,223
12:45:46.194,,-774,651,129
12:45:46.204,,-685,713,129
12:45:46.214,,-673,714,112
12:45:46.224,,-657,704,83
12:45:46.234,,-611,674,45
12:45:46.244,,-558,645,-7
12:45:46.254,,-539,661,-72
12:45:46.264,,-493,667,-190
12:45:46.274,,-572,736,-250
12:45:46.284,,-566,773,-254
12:45:46.294,,-541,766,-220
12:45:46.304,,-524,739,-179
12:45:46.314,,-560,716,-119
12:45:46.324,,-638,704,86
12:45:46.334,,-768,646,189
12:45:46.344,,-856,542,415
12:45:46.354,,-867,485,366
12:45:46.364,,-893,519,510
12:45:46.374,,-915,501,468
12:45:46.384,,-875,572,328
12:45:46.394,,-826,648,241
12:45:46.404,,-784,681,194
12:45:46.414,,-754,668,164
12:45:46.424,,-740,638,156
12:45:46.434,,-733,637,150
12:45:46.444,,-721,644,129
12:45:46.454,,-703,657,101
12:45:46.464,,-718,646,101
12:45:46.474,,-704,633,73
12:45:46.484,,-660,644,6
12:45:46.494,,-619,704,106
12:45:46.504,,-714,765,144
12:45:46.514,,-771,724,68
12:45:46.524,,-750,644,136
12:45:46.534,,-681,583,154
12:45:46.544,,-706,684,124
12:45:46.554,,-735,745,154
12:45:46.564,,-753,665,108
12:45:46.574,,-787,636,142
12:45:46.584,,-780,707,191
12:45:46.594,,-813,725,198
12:45:46.604,,-807,687,173
12:45:46.614,,-775,652,148
12:45:46.624,,-759,655,117
12:45:46.634,,-713,668,116
12:45:46.644,,-708,680,103
12:45:46.654,,-714,676,100
12:45:46.664,,-706,673,101
12:45:46.674,,-705,641,95
12:45:46.684,,-662,620,88
12:45:46.694,,-639,603,67
12:45:46.704,,-726,674,106
12:45:46.714,,-748,731,149
12:45:46.724,,-756,737,191
12:45:46.734,,-732,703,181
12:45:46.744,,-787,683,166
12:45:46.754,,-761,681,151
12:45:46.764,,-728,683,165
12:45:46.774,,-729,695,174
12:45:46.784,,-740,702,166
12:45:46.794,,-725,698,155
12:45:46.804,,-699,665,134
12:45:46.814,,-706,679,125
12:45:46.824,,-693,689,111
12:45:46.834,,-689,692,102
12:45:46.844,,-671,702,76
12:45:46.854,,-666,702,73
12:45:46.864,,-644,703,61
12:45:46.874,,-641,697,47
12:45:46.884,,-641,693,38
12:45:46.894,,-635,696,31
12:45:46.904,,-653,707,30
12:45:46.914,,-663,722,35
12:45:46.924,,-674,726,45
12:45:46.934,,-680,722,47
12:45:46.944,,-676,715,41
12:45:46.954,,-669,709,33
12:45:46.964,,-681,716,30
12:45:46.974,,-674,721,45
12:45:46.984,,-665,711,50
12:45:46.994,,-678,719,62
12:45:47.004,,-696,731,58
12:45:47.014,,-698,723,59
12:45:47.167,,-634,761,0
12:45:47.168,,-594,755,-13
12:45:47.169,,-594,755,-13
12:45:47.171,,-594,755,-13
12:45:47.172,,-594,755,-13
12:45:47.173,,-594,755,-13
12:45:47.175,,-594,755,-13
12:45:47.176,,-594,755,-13
12:45:47.178,,-595,768,-35
12:45:47.179,,-595,768,-35
12:45:47.180,,-595,768,-35
12:45:47.182,,-595,768,-35
12:45:47.183,,-595,768,-35
12:45:47.184,,-595,768,-35
12:45:47.186,,-595,768,-35
12:45:47.187,,-595,753,-41
12:45:47.188,,-595,753,-41
12:45:47.194,,-595,753,-41
12:45:47.204,,-635,755,-11
12:45:47.214,,-604,770,-11
12:45:47.224,,-594,779,-24
12:45:47.234,,-606,776,-27
12:45:47.244,,-587,789,-26
12:45:47.254,,-569,799,-37
12:45:47.264,,-567,823,-34
12:45:47.274,,-556,866,-53
12:45:47.284,,-534,870,-44
12:45:47.294,,-503,857,-36
12:45:47.304,,-554,876,-56
12:45:47.314,,-508,880,-82
12:45:47.324,,-479,929,-129
12:45:47.334,,-445,932,-93
12:45:47.344,,-312,1065,-247
12:45:47.354,,-538,744,-158
12:45:47.364,,-489,704,-115
12:45:47.374,,-487,728,-126
12:45:47.384,,-467,809,-203
12:45:47.394,,-437,868,-260
12:45:47.404,,-405,882,-298
12:45:47.414,,-337,872,-331
12:45:47.424,,-286,883,-365
12:45:47.434,,-275,919,-373
12:45:47.444,,-297,911,-348
12:45:47.454,,-342,865,-315
12:45:47.464,,-332,824,-374
12:45:47.474,,-312,831,-346
12:45:47.484,,-311,866,-337
12:45:47.494,,-329,867,-326
12:45:47.504,,-318,860,-332
12:45:47.514,,-303,882,-330
12:45:47.524,,-298,914,-356
12:45:47.534,,-295,920,-381
12:45:47.544,,-292,913,-365
12:45:47.554,,-287,899,-349
12:45:47.564,,-289,891,-362
12:45:47.574,,-299,900,-370
12:45:47.584,,-295,905,-361
12:45:47.594,,-296,899,-351
12:45:47.604,,-309,884,-351
12:45:47.614,,-287,858,-355
12:45:47.624,,-283,858,-362
12:45:47.634,,-286,855,-363
12:45:47.644,,-277,859,-377
12:45:47.654,,-280,880,-401
12:45:47.664,,-270,886,-405
12:45:47.674,,-279,886,-382
12:45:47.684,,-286,859,-358
12:45:47.694,,-287,847,-353
12:45:47.704,,-299,854,-351
12:45:47.714,,-301,857,-360
12:45:47.724,,-282,857,-358
12:45:47.734,,-273,860,-396
12:45:47.744,,-273,886,-404
12:45:47.754,,-271,870,-398
12:45:47.764,,-267,857,-395
12:45:47.774,,-256,857,-397
12:45:47.784,,-265,865,-385
12:45:47.794,,-275,868,-377
12:45:47.804,,-283,876,-368
12:45:47.814,,-278,893,-368
12:45:47.824,,-275,892,-368
12:45:47.834,,-254,893,-369
12:45:47.844,,-259,888,-378
12:45:47.854,,-268,882,-376
12:45:47.864,,-269,876,-383
12:45:47.874,,-269,881,-384
12:45:47.884,,-269,888,-383
12:45:47.894,,-266,887,-373
12:45:47.904,,-271,872,-368
12:45:47.914,,-280,861,-358
12:45:47.924,,-280,855,-354
12:45:47.934,,-273,867,-364
12:45:47.944,,-260,882,-384
12:45:47.954,,-282,870,-357
12:45:47.964,,-296,857,-374
12:45:47.974,,-268,868,-378
12:45:47.984,,-259,873,-385
12:45:47.994,,-271,875,-354
12:45:48.004,,-275,879,-355
12:45:48.014,,-279,887,-347
12:45:48.024,,-285,879,-345
12:45:48.034,,-272,870,-351
12:45:48.044,,-259,877,-363
12:45:48.054,,-284,883,-375
12:45:48.064,,-282,890,-378
12:45:48.074,,-280,892,-360
12:45:48.084,,-284,881,-346
12:45:48.094,,-294,889,-347
12:45:48.104,,-297,900,-344
12:45:48.114,,-277,912,-349
12:45:48.124,,-313,890,-318
12:45:48.134,,-315,881,-312
12:45:48.144,,-312,869,-309
12:45:48.154,,-328,867,-295
12:45:48.164,,-299,897,-299
12:45:48.174,,-296,918,-309
12:45:48.184,,-305,925,-306
12:45:48.194,,-308,922,-294
12:45:48.204,,-313,911,-289
12:45:48.214,,-325,890,-289
12:45:48.224,,-334,881,-272
12:45:48.234,,-331,884,-263
12:45:48.244,,-314,912,-289
12:45:48.254,,-333,930,-280
12:45:48.264,,-346,907,-255
12:45:48.274,,-357,885,-245
12:45:48.284,,-361,863,-239
12:45:48.294,,-364,854,-244
12:45:48.304,,-343,869,-257
12:45:48.314,,-338,889,-258
12:45:48.324,,-352,895,-252
12:45:48.334,,-353,896,-256
12:45:48.344,,-354,887,-251
12:45:48.354,,-355,874,-249
12:45:48.364,,-354,869,-248
12:45:48.374,,-357,873,-264
12:45:48.384,,-342,892,-269
12:45:48.394,,-349,889,-273
12:45:48.404,,-346,884,-276
12:45:48.414,,-353,882,-265
12:45:48.424,,-365,877,-258
12:45:48.434,,-367,877,-249
12:45:48.444,,-357,887,-245
12:45:48.454,,-352,895,-244
12:45:48.464,,-353,892,-248
12:45:48.474,,-355,895,-247
12:45:48.484,,-345,892,-251
12:45:48.494,,-333,903,-255
12:45:48.634,,-353,900,-235
12:45:48.635,,-353,900,-235
12:45:48.637,,-353,900,-235
12:45:48.638,,-353,900,-235
12:45:48.639,,-353,900,-235
12:45:48.641,,-353,900,-235
12:45:48.642,,-353,900,-235
12:45:48.643,,-356,896,-238
12:45:48.645,,-356,896,-238
12:45:48.646,,-356,896,-238
12:45:48.648,,-356,896,-238
12:45:48.649,,-356,896,-238
12:45:48.650,,-356,896,-238
12:45:48.652,,-356,896,-238
12:45:48.653,,-359,892,-241
12:45:48.654,,-359,892,-241
12:45:48.664,,-354,893,-240
12:45:48.674,,-348,885,-239
12:45:48.684,,-363,875,-236
12:45:48.694,,-360,870,-234
12:45:48.704,,-336,891,-243
12:45:48.714,,-343,905,-255
12:45:48.724,,-346,912,-251
12:45:48.734,,-349,907,-243
12:45:48.744,,-353,907,-235
12:45:48.754,,-368,887,-235
12:45:48.764,,-345,891,-231
12:45:48.774,,-350,897,-231
12:45:48.784,,-361,900,-220
12:45:48.794,,-367,894,-216
12:45:48.804,,-365,892,-212
12:45:48.814,,-359,894,-209
12:45:48.823,,-356,894,-213
12:45:48.834,,-355,895,-213
12:45:48.844,,-353,891,-216
12:45:48.853,,-359,892,-209
12:45:48.864,,-358,889,-206
12:45:48.874,,-353,891,-205
12:45:48.883,,-358,892,-204
12:45:48.894,,-362,907,-214
12:45:48.904,,-364,898,-216
12:45:48.913,,-354,900,-219
12:45:48.924,,-360,908,-209
12:45:48.933,,-370,907,-194
12:45:48.943,,-366,925,-185
12:45:48.954,,-366,930,-189
12:45:48.963,,-364,917,-196
12:45:48.973,,-367,909,-204
12:45:48.984,,-370,915,-203
12:45:48.993,,-371,914,-191
12:45:49.003,,-375,901,-183
12:45:49.013,,-375,891,-174
12:45:49.023,,-376,890,-175
12:45:49.033,,-386,884,-170
12:45:49.043,,-380,887,-170
12:45:49.053,,-372,898,-181
12:45:49.063,,-375,894,-190
12:45:49.073,,-369,896,-195
12:45:49.083,,-358,905,-216
12:45:49.093,,-354,915,-220
12:45:49.103,,-357,917,-205
12:45:49.113,,-375,905,-188
12:45:49.123,,-382,888,-177
12:45:49.133,,-377,880,-173
12:45:49.143,,-374,881,-168
12:45:49.153,,-381,878,-180
12:45:49.163,,-361,885,-196
12:45:49.173,,-346,896,-216
12:45:49.183,,-358,913,-225
12:45:49.193,,-391,917,-200
12:45:49.203,,-416,915,-180
12:45:49.213,,-455,948,-254
12:45:49.223,,-454,969,-295
12:45:49.233,,-361,857,-147
12:45:49.243,,-553,770,-199
12:45:49.253,,-437,756,-156
12:45:49.263,,-425,885,-97
12:45:49.273,,-469,982,-91
12:45:49.283,,-439,926,-173
12:45:49.293,,-424,932,-210
12:45:49.303,,-463,989,-215
12:45:49.313,,-516,1001,-177
12:45:49.323,,-553,929,-148
12:45:49.333,,-540,880,-116
12:45:49.343,,-475,818,-85
12:45:49.353,,-413,782,-85
12:45:49.363,,-341,781,-148
12:45:49.373,,-329,845,-194
12:45:49.383,,-367,893,-218
12:45:49.393,,-414,908,-268
12:45:49.403,,-419,904,-249
12:45:49.413,,-160,885,-316
12:45:49.423,,-264,912,-375
12:45:49.433,,-239,1070,-448
12:45:49.443,,-167,1058,-301
12:45:49.453,,-276,832,-205
12:45:49.463,,-341,734,-140
12:45:49.473,,-281,704,-166
12:45:49.483,,-312,753,-200
12:45:49.493,,-386,871,-175
12:45:49.503,,-366,880,-286
12:45:49.513,,-380,952,-478
12:45:49.523,,-748,1071,-435
12:45:49.533,,-316,877,-124
12:45:49.543,,-326,635,-151
12:45:49.553,,-435,576,-223
12:45:49.563,,-593,681,-251
12:45:49.573,,-492,864,-317
12:45:49.583,,-329,985,-320
12:45:49.593,,-257,1020,-353
12:45:49.603,,-287,1017,-250
12:45:49.613,,-375,969,-162
12:45:49.623,,-510,850,-129
12:45:49.633,,-554,783,-173
12:45:49.643,,-462,749,-221
12:45:49.653,,-538,621,-247
12:45:49.663,,-406,702,-384
12:45:49.673,,-518,784,-348
12:45:49.683,,-576,819,-252
12:45:49.693,,-486,837,-116
12:45:49.703,,-343,902,-97
12:45:49.713,,-163,1032,-222
12:45:49.723,,3,1225,-534
12:45:49.733,,-272,1046,-702
12:45:49.743,,-398,951,-743
12:45:49.753,,-295,942,-492
12:45:49.763,,-299,879,-289
12:45:49.773,,-440,848,-302
12:45:49.783,,-468,766,-216
12:45:49.793,,-399,876,-351
12:45:49.803,,-370,849,-390
12:45:49.813,,-377,828,-412
12:45:49.823,,-343,845,-413
12:45:49.833,,-308,827,-340
12:45:49.843,,-321,832,-296
12:45:49.853,,-386,856,-277
12:45:49.863,,-385,843,-326
12:45:49.873,,-369,806,-396
12:45:49.883,,-340,797,-444
12:45:49.893,,-342,885,-363
12:45:49.903,,-289,945,-319
12:45:49.913,,-250,950,-315
12:45:49.923,,-325,909,-367
12:45:49.933,,-285,887,-382
12:45:49.943,,-223,843,-307
12:45:49.953,,-232,840,-299
12:45:50.107,,-333,877,-316
12:45:50.108,,-333,877,-316
12:45:50.109,,-341,876,-336
12:45:50.111,,-341,876,-336
12:45:50.112,,-341,876,-336
12:45:50.113,,-341,876,-336
12:45:50.115,,-341,876,-336
12:45:50.116,,-341,876,-336
12:45:50.118,,-341,876,-331
12:45:50.119,,-348,905,-331
12:45:50.120,,-348,905,-331
12:45:50.122,,-348,905,-331
12:45:50.123,,-348,905,-331
12:45:50.124,,-348,905,-331
12:45:50.126,,-348,905,-331
12:45:50.127,,-282,903,-284
12:45:50.128,,-282,903,-284
12:45:50.133,,-282,903,-284
12:45:50.143,,-282,876,-302
12:45:50.153,,-313,877,-298
12:45:50.163,,-301,879,-329
12:45:50.173,,-312,850,-360
12:45:50.183,,-300,841,-323
12:45:50.193,,-316,871,-384
12:45:50.203,,-361,883,-311
12:45:50.213,,-363,897,-321
12:45:50.223,,-344,890,-301
12:45:50.233,,-329,877,-332
12:45:50.243,,-322,879,-337
12:45:50.253,,-281,890,-348
12:45:50.263,,-281,894,-351
12:45:50.273,,-312,873,-360
12:45:50.283,,-299,875,-358
12:45:50.293,,-292,862,-357
12:45:50.303,,-308,875,-352
12:45:50.313,,-317,888,-329
12:45:50.323,,-342,899,-331
12:45:50.333,,-345,916,-328
12:45:50.343,,-318,893,-360
12:45:50.353,,-265,896,-355
12:45:50.363,,-265,889,-365
12:45:50.373,,-285,881,-382
12:45:50.383,,-287,893,-395
12:45:50.393,,-281,879,-379
12:45:50.403,,-278,864,-356
12:45:50.413,,-287,856,-343
12:45:50.423,,-292,865,-358
12:45:50.433,,-301,883,-347
12:45:50.443,,-300,875,-364
12:45:50.453,,-303,875,-374
12:45:50.463,,-321,884,-374
12:45:50.473,,-309,884,-385
12:45:50.483,,-291,868,-397
12:45:50.493,,-294,866,-386
12:45:50.503,,-301,868,-366
12:45:50.513,,-290,869,-358
12:45:50.523,,-292,869,-354
12:45:50.533,,-292,858,-361
12:45:50.543,,-292,854,-363
12:45:50.553,,-296,869,-359
12:45:50.563,,-306,869,-372
12:45:50.573,,-303,869,-387
12:45:50.583,,-315,870,-398
12:45:50.593,,-320,886,-387
12:45:50.603,,-318,884,-387
12:45:50.613,,-308,875,-372
12:45:50.623,,-303,872,-347
12:45:50.633,,-296,872,-338
12:45:50.643,,-308,873,-339
12:45:50.653,,-300,882,-356
