Sensors' Acquisition [Hz]: Gyro@104.0 
hh:mm:ss.ms, Annotation , GyroX [mdps], GyroY, GyroZ
16:20:38.342,,-3150,840,2940
16:20:38.352,,-3570,1960,4130
16:20:38.362,,-4200,2800,4550
16:20:38.372,,-4830,2660,4480
16:20:38.382,,-4690,1050,3920
16:20:38.392,,-3920,770,3990
16:20:38.402,,-3500,980,4340
16:20:38.412,,-2590,1680,4550
16:20:38.422,,-1190,2170,4200
16:20:38.432,>Stationary,,,
16:20:38.433,,-350,1960,3570
16:20:38.442,,70,1750,2590
16:20:38.453,,420,1330,1750
16:20:38.462,,630,1120,1050
16:20:38.473,,1680,560,980
16:20:38.482,,2800,-560,1050
16:20:38.493,,3150,-1750,0
16:20:38.502,,2590,-2450,0
16:20:38.512,,2100,-3150,-1960
16:20:38.522,,2240,-3500,-2380
16:20:38.532,,2450,-3570,-1960
16:20:38.542,,2030,-3360,-1120
16:20:38.552,,1120,-3570,-420
16:20:38.562,,0,-3850,-210
16:20:38.572,,-700,-4270,-350
16:20:38.582,,-560,-4760,-210
16:20:38.592,,-490,-5040,-70
16:20:38.602,,-560,-4620,0
16:20:38.612,,-560,-3920,140
16:20:38.622,,-840,-3150,70
16:20:38.632,,-980,-2940,-770
16:20:38.642,,-350,-3360,-1330
16:20:38.652,,560,-3430,-1470
16:20:38.662,,1050,-3500,-630
16:20:38.672,,280,-3500,840
16:20:38.682,,-1470,-2870,2380
16:20:38.692,,-1820,-2240,3570
16:20:38.702,,-1190,-2870,3850
16:20:38.712,,-280,-3710,3990
16:20:38.722,,1050,-4200,3850
16:20:38.732,,1820,-4340,3220
16:20:38.742,,1750,-3920,2520
16:20:38.752,,1120,-3360,2100
16:20:38.762,,350,-2660,2240
16:20:38.772,,-280,-2240,2800
16:20:38.782,,140,-2170,3290
16:20:38.792,,490,-2240,3430
16:20:38.802,,770,-2100,3010
16:20:38.812,,980,-1750,2380
16:20:38.822,,1050,-1190,1750
16:20:38.832,,980,-910,1330
16:20:38.842,,700,-770,1190
16:20:38.852,,210,-700,910
16:20:38.862,,210,-280,980
16:20:38.872,,280,70,980
16:20:38.882,,490,-210,770
16:20:38.892,,1050,140,1120
16:20:38.902,,280,630,1190
16:20:38.912,,-280,910,1190
16:20:38.922,,-350,840,1330
16:20:38.932,,-490,770,1540
16:20:38.942,,-560,910,1400
16:20:38.952,,-490,1120,1470
16:20:38.962,,-490,1610,1610
16:20:38.972,,-210,2170,1540
16:20:38.982,,350,1820,1400
16:20:38.992,,560,1050,1260
16:20:39.002,,490,910,910
16:20:39.012,,280,1120,420
16:20:39.022,,420,1680,-70
16:20:39.032,,70,2100,70
16:20:39.042,,70,2450,-70
16:20:39.052,,350,2660,-70
16:20:39.062,,560,2590,-420
16:20:39.072,,770,2170,-910
16:20:39.082,,1470,2030,-1120
16:20:39.092,,1820,2030,-910
16:20:39.102,,1470,1890,-560
16:20:39.112,,350,1960,-770
16:20:39.122,,-420,2030,-840
16:20:39.132,,-840,2030,-770
16:20:39.142,,-910,1890,-840
16:20:39.152,,-1050,910,-490
16:20:39.162,,-2240,700,-420
16:20:39.172,,-3150,1050,-560
16:20:39.182,,-2660,1470,-840
16:20:39.192,,-1400,1610,-910
16:20:39.202,,70,1890,-770
16:20:39.212,,980,2170,-420
16:20:39.222,,1330,2660,-210
16:20:39.232,,1540,2940,140
16:20:39.242,,1610,2940,700
16:20:39.252,,1050,2870,1120
16:20:39.262,,350,2520,1120
16:20:39.272,,-350,1890,1050
16:20:39.282,,-910,1190,1190
16:20:39.292,,-770,1750,1260
16:20:39.302,,-560,2170,1190
16:20:39.312,,-70,2170,1050
16:20:39.322,,630,1820,700
16:20:39.332,,1260,1400,350
16:20:39.342,,1470,1330,70
16:20:39.352,,1540,1540,0
16:20:39.362,,1400,1540,-140
16:20:39.372,,1400,1260,-70
16:20:39.382,,1330,770,-140
16:20:39.392,,840,280,-420
16:20:39.402,,350,70,-1050
16:20:39.412,,1400,700,-910
16:20:39.422,,1540,1050,-420
16:20:39.432,,1400,1540,-140
16:20:39.442,,1120,1680,0
16:20:39.452,,910,1190,70
16:20:39.462,,700,490,70
16:20:39.472,,350,210,140
16:20:39.482,,-560,0,210
16:20:39.492,,-1330,-420,70
16:20:39.502,,-1750,-840,-140
16:20:39.512,,-1680,-980,-350
16:20:39.522,,-1400,-980,-140
16:20:39.532,,-1330,-490,910
16:20:39.542,,-1470,-280,1260
16:20:39.552,,-910,-70,1330
16:20:39.562,,-560,0,1120
16:20:39.572,,-350,0,770
16:20:39.582,,280,140,630
16:20:39.592,,910,-70,700
16:20:39.602,,1050,-280,700
16:20:39.612,,770,70,630
16:20:39.622,,630,210,560
16:20:39.632,,630,-70,490
16:20:39.642,,630,-280,420
16:20:39.652,,840,-140,490
16:20:39.662,,770,630,1330
16:20:39.672,,490,630,1680
16:20:39.682,,210,560,1820
16:20:39.692,,70,280,1680
16:20:39.702,,210,0,1470
16:20:39.712,,490,-140,1330
16:20:39.722,,840,-70,1190
16:20:39.732,,1260,70,980
16:20:39.742,,1190,-70,700
16:20:39.894,,-210,-1330,1890
16:20:39.895,,350,-1330,1890
16:20:39.897,,350,-1330,1890
16:20:39.898,,350,-1330,1890
16:20:39.900,,350,-1330,1890
16:20:39.901,,350,-1330,1890
16:20:39.902,,350,-1330,1890
16:20:39.904,,350,-1470,2030
16:20:39.905,,350,-1470,2030
16:20:39.906,,350,-1470,2030
16:20:39.908,,350,-1470,2030
16:20:39.909,,350,-1470,2030
16:20:39.911,,350,-1470,2030
16:20:39.912,,350,-1470,2030
16:20:39.913,,0,-1330,1960
16:20:39.915,,0,-1330,1960
16:20:39.916,,0,-1330,1960
16:20:39.922,,-280,-1050,1470
16:20:39.932,,-490,-910,1330
16:20:39.942,,210,-840,630
16:20:39.952,,980,-700,490
16:20:39.962,,700,-630,770
16:20:39.972,,0,-560,910
16:20:39.982,,-280,-350,1190
16:20:39.992,,280,-140,1400
16:20:40.002,,1330,-350,1400
16:20:40.012,,1890,-630,980
16:20:40.022,,1820,-770,770
16:20:40.032,,1330,-700,630
16:20:40.042,,1190,-560,910
16:20:40.052,,70,-770,1400
16:20:40.062,,-1120,-1120,1750
16:20:40.072,,-2450,-1260,1680
16:20:40.082,,-3080,-1330,1400
16:20:40.092,,-2940,-1820,980
16:20:40.102,,-2450,-2030,770
16:20:40.112,,-1610,-1680,910
16:20:40.122,,-770,-1330,980
16:20:40.132,,-70,-1260,700
16:20:40.142,,700,-1120,350
16:20:40.152,,1330,-1330,70
16:20:40.162,,1260,-1890,-490
16:20:40.172,,980,-1960,-840
16:20:40.182,,630,-1120,-490
16:20:40.192,,280,-840,-140
16:20:40.202,,70,-490,-70
16:20:40.212,,770,-70,0
16:20:40.222,,1680,70,350
16:20:40.232,,2030,-210,770
16:20:40.242,,1680,-630,770
16:20:40.252,,1050,-910,350
16:20:40.262,,980,-1260,-140
16:20:40.272,,1120,-1680,-350
16:20:40.282,,1120,-1680,-770
16:20:40.292,,840,-1330,-1120
16:20:40.302,,630,350,-140
16:20:40.312,,420,980,840
16:20:40.322,,210,1190,1120
16:20:40.332,,350,1120,910
16:20:40.342,,560,840,560
16:20:40.352,,910,770,70
16:20:40.362,,1400,840,-210
16:20:40.372,,1610,980,-210
16:20:40.382,,1260,980,-140
16:20:40.392,,560,1050,-280
16:20:40.402,,280,1050,-560
16:20:40.412,,560,1120,-980
16:20:40.422,,910,1120,-1260
16:20:40.432,,700,1470,-1260
16:20:40.442,,560,1540,-840
16:20:40.452,,210,1330,-630
16:20:40.462,,70,1400,-700
16:20:40.472,,0,1680,-980
16:20:40.482,,140,1890,-980
16:20:40.492,,0,2170,-700
16:20:40.502,,-350,2310,-490
16:20:40.512,,-910,2240,-420
16:20:40.522,,-1190,2100,-700
16:20:40.532,,-980,2310,-910
16:20:40.542,,-280,2660,-840
16:20:40.552,,140,3010,-700
16:20:40.562,,770,3710,-700
16:20:40.572,,980,3710,-420
16:20:40.582,,840,3220,-210
16:20:40.592,,350,2800,-140
16:20:40.602,,-350,2380,-280
16:20:40.612,,-1050,2030,-630
16:20:40.622,,-1400,2030,-840
16:20:40.632,,-1680,1960,-980
16:20:40.642,,-2100,1820,-910
16:20:40.652,,-2170,1680,-630
16:20:40.662,,-2170,1470,-70
16:20:40.672,,-2240,1400,350
16:20:40.682,,-2380,1540,350
16:20:40.692,,-1610,2310,-140
16:20:40.702,,-1330,2100,-770
16:20:40.712,,-700,1890,-1330
16:20:40.722,,0,1750,-1680
16:20:40.732,,70,1610,-1610
16:20:40.742,,-210,1540,-1330
16:20:40.752,,-700,1960,-980
16:20:40.762,,-700,2520,-700
16:20:40.772,,-630,2660,-560
16:20:40.782,,-210,2730,-910
16:20:40.792,,350,2590,-1050
16:20:40.802,,0,2170,-910
16:20:40.812,,-630,1960,-350
16:20:40.822,,-420,2590,70
16:20:40.832,,420,2590,-210
16:20:40.842,,1120,2380,-840
16:20:40.852,,1330,2240,-1330
16:20:40.862,,980,2450,-1610
16:20:40.872,,350,2590,-1820
16:20:40.882,,-350,2730,-1610
16:20:40.892,,-980,3150,-980
16:20:40.902,,-1330,3640,-140
16:20:40.912,,-1050,4130,210
16:20:40.922,,-420,4410,140
16:20:40.932,,0,4130,-70
16:20:40.942,,280,3640,-840
16:20:40.952,,350,3780,-840
16:20:40.962,,0,4270,-980
16:20:40.972,,-350,4900,-1260
16:20:40.982,,-350,5180,-1470
16:20:40.992,,-140,5180,-1750
16:20:41.002,,140,5180,-2170
16:20:41.012,,140,5250,-2450
16:20:41.022,,140,5390,-2240
16:20:41.032,,-70,5880,-1610
16:20:41.042,,-840,6300,-1190
16:20:41.052,,-1190,6790,-1190
16:20:41.062,,-980,6790,-1330
16:20:41.072,,-700,6370,-2030
16:20:41.082,,140,6510,-2380
16:20:41.092,,70,6440,-2800
16:20:41.102,,-350,6020,-3010
16:20:41.112,,-910,5670,-3010
16:20:41.122,,-1260,5320,-3080
16:20:41.132,,-1610,4900,-3290
16:20:41.142,,-2030,4620,-3500
16:20:41.152,,-2450,4760,-3640
16:20:41.162,,-2520,5180,-3360
16:20:41.172,,-2240,5460,-2730
16:20:41.277,,910,7770,-3290
16:20:41.279,,910,7770,-3290
16:20:41.280,,910,7770,-3290
16:20:41.282,,910,7770,-3290
16:20:41.283,,910,7770,-3290
16:20:41.284,,910,7770,-3290
16:20:41.286,,910,8260,-3640
16:20:41.287,,910,8260,-3640
16:20:41.288,,910,8260,-3640
16:20:41.290,,910,8260,-3640
16:20:41.291,,910,8260,-3640
16:20:41.292,,910,8260,-3640
16:20:41.302,,1050,8750,-3920
16:20:41.312,,980,9030,-4060
16:20:41.322,,770,9310,-4200
16:20:41.332,,210,10640,-4340
16:20:41.342,,280,11690,-4270
16:20:41.352,,490,12530,-4270
16:20:41.362,,840,13230,-4410
16:20:41.372,,1330,13650,-4760
16:20:41.382,,1680,13580,-5250
16:20:41.392,,1820,13440,-5810
16:20:41.402,,1680,13370,-6370
16:20:41.412,,1400,13300,-6860
16:20:41.422,,910,13160,-7280
16:20:41.432,,350,13090,-7770
16:20:41.442,,-210,13020,-8260
16:20:41.452,,-630,13160,-8750
16:20:41.462,,-560,14140,-9660
16:20:41.472,,-280,14280,-9940
16:20:41.482,,280,14210,-9800
16:20:41.492,,840,13860,-9310
16:20:41.502,,1050,13230,-8750
16:20:41.512,,980,12390,-8050
16:20:41.522,,1330,11480,-7490
16:20:41.532,,2030,10500,-7210
16:20:41.542,,2520,9520,-7070
16:20:41.552,,2520,8750,-6930
16:20:41.562,,1890,8050,-6580
16:20:41.572,,1190,7630,-5670
16:20:41.582,,560,7140,-3290
16:20:41.592,,490,7000,-2450
16:20:41.602,,490,6370,-1890
16:20:41.612,,70,5320,-1890
16:20:41.622,,-280,4760,-2170
16:20:41.632,,210,4550,-2380
16:20:41.642,,980,4270,-2520
16:20:41.652,,1750,3780,-2730
16:20:41.662,,2240,3500,-3220
16:20:41.672,,2310,3430,-3220
16:20:41.682,,2100,3430,-2590
16:20:41.692,,1330,3920,-2030
16:20:41.702,,210,4690,-1330
16:20:41.712,,-910,5600,420
16:20:41.722,,-980,5180,980
16:20:41.732,,-1330,4550,1330
16:20:41.742,,-1050,4340,1190
16:20:41.752,,210,4690,770
16:20:41.762,,1680,4970,350
16:20:41.772,,2520,5040,-210
16:20:41.782,,3080,4760,-840
16:20:41.792,,3500,4270,-1330
16:20:41.802,,3500,3780,-1540
16:20:41.812,,3430,3220,-1330
16:20:41.822,,3010,2870,-980
16:20:41.832,,2450,2730,-770
16:20:41.842,,2100,2520,-490
16:20:41.852,,2240,2030,-490
16:20:41.862,,2520,1540,-700
16:20:41.872,,2870,910,-700
16:20:41.882,,3010,70,-630
16:20:41.892,,2800,-280,-630
16:20:41.902,,2100,-490,-560
16:20:41.912,,1330,-490,-420
16:20:41.922,,840,-490,0
16:20:41.932,,490,-560,490
16:20:41.942,,210,-630,840
16:20:41.952,,0,-700,1050
16:20:41.962,,-70,-630,1400
16:20:41.972,,70,140,1890
16:20:41.982,,630,770,1610
16:20:41.992,,1260,770,1120
16:20:42.002,,1750,210,840
16:20:42.012,,1890,-490,490
16:20:42.022,,1680,-910,210
16:20:42.032,,1470,-770,280
16:20:42.042,,1120,-350,350
16:20:42.052,,910,70,420
16:20:42.062,,1330,490,420
16:20:42.072,,2030,700,350
16:20:42.082,,2800,770,210
16:20:42.092,,3430,560,70
16:20:42.102,,3430,140,280
16:20:42.112,,3080,-280,560
16:20:42.122,,2660,-910,1050
16:20:42.132,,2170,-1610,1470
16:20:42.142,,1610,-2030,1750
16:20:42.152,,910,-2380,1540
16:20:42.162,,70,-2730,1260
16:20:42.172,,-490,-2940,1120
16:20:42.182,,-840,-3080,1120
16:20:42.192,,-1120,-3080,1120
16:20:42.202,,-1470,-3010,980
16:20:42.212,,-1540,-2730,840
16:20:42.222,,-1400,-2310,700
16:20:42.232,,-350,-2100,420
16:20:42.242,,420,-2030,140
16:20:42.252,,1260,-1960,-70
16:20:42.262,,1750,-1750,-210
16:20:42.272,,2240,-1470,-70
16:20:42.282,,2660,-1260,140
16:20:42.292,,2730,-1190,280
16:20:42.302,,2380,-770,350
16:20:42.312,,2100,-350,420
16:20:42.322,,2240,-210,350
16:20:42.332,,2800,-420,350
16:20:42.342,,3360,-560,700
16:20:42.352,,3710,-630,1260
16:20:42.362,,3220,-630,1260
16:20:42.372,,3080,-350,1260
16:20:42.382,,3150,0,1120
16:20:42.392,,3430,280,1050
16:20:42.402,,3990,770,1190
16:20:42.412,,4340,910,1680
16:20:42.422,,3430,280,1890
16:20:42.432,,1960,-490,1470
16:20:42.442,,700,-980,1050
16:20:42.452,,140,-1470,980
16:20:42.462,,140,-1890,1330
16:20:42.472,,210,-2310,1260
16:20:42.482,,420,-3220,560
16:20:42.492,,1260,-3570,490
16:20:42.502,,1260,-3850,560
16:20:42.512,,700,-3640,770
16:20:42.522,,-70,-2800,910
16:20:42.532,,-840,-1540,910
16:20:42.542,,-1330,-280,910
16:20:42.552,,-1540,980,1330
16:20:42.562,,-1330,1750,1890
16:20:42.572,,-1120,2170,2030
16:20:42.582,,-770,2940,1820
16:20:42.592,,-350,4270,1260
16:20:42.703,,560,19950,-2380
16:20:42.705,,560,21210,-2940
16:20:42.706,,560,21210,-2940
16:20:42.707,,560,21210,-2940
16:20:42.709,,560,21210,-2940
16:20:42.710,,560,21210,-2940
16:20:42.711,,560,21210,-2940
16:20:42.713,,560,21210,-2940
16:20:42.714,,700,21700,-3780
16:20:42.716,,700,21700,-3780
16:20:42.717,,700,21700,-3780
16:20:42.718,,700,21700,-3780
16:20:42.722,,700,21700,-3780
16:20:42.732,,1330,21560,-4620
16:20:42.742,,1750,22400,-5880
16:20:42.752,,2100,24080,-6370
16:20:42.762,,2170,26040,-6860
16:20:42.772,,2030,27930,-7560
16:20:42.782,,2170,29750,-8610
16:20:42.792,,3430,31150,-9730
16:20:42.802,,5530,31850,-10850
16:20:42.812,,6930,31990,-11690
16:20:42.822,,7420,32060,-12320
16:20:42.832,,7350,32060,-12670
16:20:42.842,,6790,31780,-12950
16:20:42.852,,6090,31220,-13580
16:20:42.862,,5810,30590,-14420
16:20:42.872,,6020,29680,-15680
16:20:42.882,,5950,30240,-16240
16:20:42.892,,6510,31080,-16730
16:20:42.902,,8260,31640,-17010
16:20:42.912,,10220,32130,-16730
16:20:42.922,,10990,32900,-15680
16:20:42.932,,10500,33880,-14630
16:20:42.942,,8820,34860,-13790
16:20:42.952,,7140,35560,-13160
16:20:42.962,,5880,35980,-12810
16:20:42.972,,4550,36190,-12740
16:20:42.982,,3990,36610,-13020
16:20:42.992,,5180,36610,-13370
16:20:43.002,,8610,35140,-13370
16:20:43.012,,9240,34790,-13370
16:20:43.022,,9940,34930,-13720
16:20:43.032,,10710,35210,-14140
16:20:43.042,,10640,35490,-14490
16:20:43.052,,10500,35420,-15470
16:20:43.062,,11410,34930,-17500
16:20:43.072,,11900,33810,-20090
16:20:43.082,,11270,32970,-22260
16:20:43.092,,11200,32550,-23590
16:20:43.102,,12950,30310,-23800
16:20:43.112,,25200,30590,-23940
16:20:43.122,,37450,26390,-26390
16:20:43.132,,33110,24990,-26600
16:20:43.142,,26320,25480,-25550
16:20:43.152,,18480,27230,-24010
16:20:43.162,,11340,29820,-22610
16:20:43.172,,5040,31710,-21630
16:20:43.182,,980,32690,-21000
16:20:43.192,,1120,33250,-19880
16:20:43.202,,5040,32550,-19460
16:20:43.212,,9660,31010,-20020
16:20:43.222,,13370,30030,-20650
16:20:43.232,,16380,30590,-20160
16:20:43.242,,17920,31990,-18760
16:20:43.252,,15610,34160,-15260
16:20:43.262,,13650,33530,-12950
16:20:43.272,,15050,33110,-10710
16:20:43.282,,16730,30100,-8890
16:20:43.292,,10430,25270,-10500
16:20:43.302,,4060,24500,-12600
16:20:43.312,,3570,25900,-12950
16:20:43.322,,4900,26390,-13300
16:20:43.332,,6370,26040,-13230
16:20:43.342,,8820,25830,-12810
16:20:43.352,,8610,25620,-12880
16:20:43.362,,5320,25130,-13090
16:20:43.372,,1120,24360,-13790
16:20:43.382,,-5390,23730,-14770
16:20:43.392,,-8330,23380,-14770
16:20:43.402,,-11620,23730,-14140
16:20:43.412,,-14280,24780,-12530
16:20:43.422,,-15960,25760,-11270
16:20:43.432,,-15820,26460,-11060
16:20:43.442,,-13930,26880,-11340
16:20:43.452,,-11900,26740,-11410
16:20:43.462,,-10780,25690,-11270
16:20:43.472,,-10500,24360,-10990
16:20:43.482,,-10990,23310,-10780
16:20:43.492,,-12180,22890,-11060
16:20:43.502,,-12950,23100,-11900
16:20:43.512,,-12250,23520,-13510
16:20:43.522,,-12600,23590,-14350
16:20:43.532,,-12950,24150,-14630
16:20:43.542,,-13650,24430,-14630
16:20:43.552,,-14560,24570,-14280
16:20:43.562,,-14980,25200,-13300
16:20:43.572,,-14490,25900,-11970
16:20:43.582,,-13720,26320,-10780
16:20:43.592,,-13160,26530,-9660
16:20:43.602,,-12390,26670,-8330
16:20:43.612,,-11060,26390,-7140
16:20:43.622,,-10360,25620,-6720
16:20:43.632,,-10500,25130,-7560
16:20:43.642,,-9940,24290,-10780
16:20:43.652,,-9520,22330,-12250
16:20:43.662,,-9520,20160,-14210
16:20:43.672,,-9660,18620,-16030
16:20:43.682,,-10360,18060,-17010
16:20:43.692,,-10570,18550,-17010
16:20:43.702,,-10360,19740,-16940
16:20:43.712,,-10500,21070,-16730
16:20:43.722,,-10430,22260,-15540
16:20:43.732,,-10360,23100,-14140
16:20:43.742,,-10080,23450,-13300
16:20:43.752,,-8960,23450,-12670
16:20:43.762,,-7420,23520,-12040
16:20:43.772,,-5180,23380,-11480
16:20:43.782,,-4130,23240,-10430
16:20:43.792,,-2590,23170,-9310
16:20:43.802,,-1470,22890,-8540
16:20:43.812,,-1120,22400,-7840
16:20:43.822,,-770,22190,-7000
16:20:43.832,,350,22050,-6090
16:20:43.842,,1470,22050,-4760
16:20:43.852,,1890,22540,-3010
16:20:44.004,,-2310,9380,2450
16:20:44.005,,-2310,9380,2450
16:20:44.006,,-2310,9380,2450
16:20:44.008,,-2310,9380,2450
16:20:44.009,,-2310,9380,2450
16:20:44.010,,-2310,9380,2450
16:20:44.012,,-2310,9380,2450
16:20:44.013,,-280,8540,2170
16:20:44.015,,-280,8540,2170
16:20:44.016,,-280,8540,2170
16:20:44.017,,-280,8540,2170
16:20:44.019,,-280,8540,2170
16:20:44.020,,-280,8540,2170
16:20:44.021,,-280,8540,2170
16:20:44.023,,770,6860,1400
16:20:44.024,,770,6860,1400
16:20:44.025,,770,6860,1400
16:20:44.032,,910,4830,560
16:20:44.042,,-280,3010,210
16:20:44.052,,-2380,1400,0
16:20:44.062,,-4900,350,210
16:20:44.072,,-6650,70,840
16:20:44.082,,-7000,-70,1960
16:20:44.092,,-6930,-840,3150
16:20:44.102,,-7280,-1680,3850
16:20:44.112,,-7630,-1890,3920
16:20:44.122,,-7140,-1960,3710
16:20:44.132,,-5670,-2310,3500
16:20:44.142,,-4200,-2380,3150
16:20:44.152,,-2800,-1540,3290
16:20:44.162,,-2030,-1330,3780
16:20:44.172,,-770,-980,4410
16:20:44.182,,420,-420,5460
16:20:44.192,,1190,490,7210
16:20:44.202,,1750,1190,8610
16:20:44.212,,2030,1260,9310
16:20:44.222,,2380,770,10010
16:20:44.232,,2800,70,10570
16:20:44.242,,3710,-910,10850
16:20:44.252,,4900,-2310,10570
16:20:44.262,,6510,-3430,10570
16:20:44.272,,7980,-3850,11410
16:20:44.282,,10150,-4830,12740
16:20:44.292,,10640,-5110,13090
16:20:44.302,,11480,-5180,14280
16:20:44.312,,12180,-5670,15680
16:20:44.322,,12040,-6440,16590
16:20:44.332,,11550,-7140,17430
16:20:44.342,,11340,-8120,18270
16:20:44.352,,11200,-9170,18410
16:20:44.362,,10850,-10010,18130
16:20:44.372,,10290,-10780,18060
16:20:44.382,,9170,-11270,18200
16:20:44.392,,7350,-11760,17990
16:20:44.402,,5390,-12110,17570
16:20:44.412,,3220,-12600,17430
16:20:44.422,,2870,-12880,17220
16:20:44.432,,2800,-13230,16940
16:20:44.442,,2730,-13440,16940
16:20:44.452,,3220,-12880,17640
16:20:44.462,,3780,-11900,18760
16:20:44.472,,3570,-10920,19460
16:20:44.482,,3500,-10430,19530
16:20:44.492,,4270,-10640,19180
16:20:44.502,,5180,-11480,18620
16:20:44.512,,6020,-12600,18060
16:20:44.522,,6510,-13580,17850
16:20:44.532,,6510,-15330,17500
16:20:44.542,,5950,-15680,16590
16:20:44.552,,6650,-15680,16030
16:20:44.562,,7490,-15680,15960
16:20:44.572,,7770,-15750,16310
16:20:44.582,,7070,-15890,16870
16:20:44.592,,5880,-15890,17430
16:20:44.602,,4550,-16100,18200
16:20:44.612,,3360,-16380,18620
16:20:44.622,,2170,-16800,18550
16:20:44.632,,1190,-17290,17780
16:20:44.642,,840,-17990,16870
16:20:44.652,,700,-19040,16170
16:20:44.662,,350,-21490,15610
16:20:44.672,,-1470,-21910,15610
16:20:44.682,,-2100,-21700,16100
16:20:44.692,,-3010,-21210,16520
16:20:44.702,,-3920,-20790,16590
16:20:44.712,,-4550,-20510,16030
16:20:44.722,,-4690,-20440,15260
16:20:44.732,,-4270,-20440,14420
16:20:44.742,,-3290,-20790,14000
16:20:44.752,,-2660,-21350,13860
16:20:44.762,,-1680,-21630,13510
16:20:44.772,,-210,-21420,13230
16:20:44.782,,770,-21140,13160
16:20:44.792,,910,-19740,12670
16:20:44.802,,840,-19110,12600
16:20:44.812,,1190,-18550,12670
16:20:44.822,,1610,-18060,12670
16:20:44.832,,2100,-17500,12670
16:20:44.842,,2590,-16940,12740
16:20:44.852,,2870,-16590,12600
16:20:44.862,,3010,-16520,12180
16:20:44.872,,2870,-16520,11620
16:20:44.882,,2380,-16590,11200
16:20:44.892,,1960,-16730,10640
16:20:44.902,,1260,-16730,10080
16:20:44.912,,490,-16520,9730
16:20:44.922,,-1050,-15470,9590
16:20:44.932,,-2100,-15050,9310
16:20:44.942,,-2870,-14560,8750
16:20:44.952,,-3360,-14070,8120
16:20:44.962,,-3570,-13580,7630
16:20:44.972,,-3290,-13440,7280
16:20:44.982,,-3500,-13580,6790
16:20:44.992,,-4480,-13720,6370
16:20:45.002,,-5390,-13510,5810
16:20:45.012,,-6020,-12950,5180
16:20:45.022,,-6090,-12530,4550
16:20:45.032,,-5670,-12250,4130
16:20:45.042,,-5040,-11970,3710
16:20:45.052,,-3640,-11550,2590
16:20:45.062,,-3010,-11340,2310
16:20:45.072,,-2590,-11130,2310
16:20:45.082,,-2100,-11270,2240
16:20:45.092,,-1750,-11480,2170
16:20:45.102,,-1820,-11410,2170
16:20:45.112,,-1820,-10780,2520
16:20:45.122,,-1400,-9870,2940
16:20:45.132,,-1050,-8680,3500
16:20:45.142,,-490,-7560,4060
16:20:45.152,,0,-6930,4340
16:20:45.162,,490,-6650,4620
16:20:45.172,,980,-6720,4690
16:20:45.324,,-210,-9730,6580
16:20:45.325,,-210,-9730,6580
16:20:45.326,,-210,-9730,6580
16:20:45.328,,-210,-9730,6580
16:20:45.329,,-210,-9730,6580
16:20:45.330,,-70,-9380,6930
16:20:45.332,,-70,-9380,6930
16:20:45.333,,-70,-9380,6930
16:20:45.335,,-70,-9380,6930
16:20:45.336,,-70,-9380,6930
16:20:45.337,,-70,-9380,6930
16:20:45.339,,-70,-9380,7140
16:20:45.340,,210,-8890,7140
16:20:45.341,,210,-8890,7140
16:20:45.343,,210,-8890,7140
16:20:45.344,,210,-8890,7140
16:20:45.345,,210,-8890,7140
16:20:45.352,,700,-8260,7210
16:20:45.362,,1260,-7700,7420
16:20:45.372,,1610,-7490,7700
16:20:45.382,,1820,-7560,7560
16:20:45.392,,2170,-7770,7140
16:20:45.402,,2590,-8260,6930
16:20:45.412,,2800,-8610,7070
16:20:45.422,,2590,-8960,7280
16:20:45.432,,1400,-9450,7840
16:20:45.442,,980,-9380,7910
16:20:45.452,,770,-9380,7630
16:20:45.462,,700,-9590,7140
16:20:45.472,,560,-9800,6650
16:20:45.482,,350,-10080,6020
16:20:45.492,,210,-10290,5250
16:20:45.502,,70,-10430,4550
16:20:45.512,,-70,-10430,4130
16:20:45.522,,70,-9870,3990
16:20:45.532,,70,-9450,4620
16:20:45.542,,-490,-9660,4830
16:20:45.552,,-1960,-9940,4410
16:20:45.562,,-3290,-9100,4550
16:20:45.572,,-3080,-8330,4550
16:20:45.582,,-2310,-7490,4200
16:20:45.592,,-1330,-6720,4340
16:20:45.602,,-700,-6440,4550
16:20:45.612,,-420,-7210,4480
16:20:45.622,,-280,-7630,4620
16:20:45.632,,-140,-7490,4690
16:20:45.642,,-210,-7070,4690
16:20:45.652,,-490,-6510,4760
16:20:45.662,,-700,-5740,4830
16:20:45.672,,-490,-5250,5110
16:20:45.682,,-350,-4830,5530
16:20:45.692,,350,-3990,6230
16:20:45.702,,980,-3640,6440
16:20:45.712,,1680,-3780,6440
16:20:45.722,,2100,-4200,6090
16:20:45.732,,2240,-4830,5460
16:20:45.742,,2240,-5390,4830
16:20:45.752,,2310,-5880,4550
16:20:45.762,,2590,-6160,4410
16:20:45.772,,3080,-6440,4200
16:20:45.782,,3500,-6580,3710
16:20:45.792,,3920,-6510,3080
16:20:45.802,,4690,-6370,2800
16:20:45.812,,5390,-6580,2940
16:20:45.822,,5040,-7280,3010
16:20:45.832,,4690,-7280,3430
16:20:45.842,,4480,-7350,3850
16:20:45.852,,4270,-7280,3990
16:20:45.862,,3920,-7000,4130
16:20:45.872,,3640,-6720,4340
16:20:45.882,,3430,-6650,4340
16:20:45.892,,3010,-6930,4200
16:20:45.902,,2590,-7350,4270
16:20:45.912,,1960,-7770,4620
16:20:45.922,,1400,-7840,4900
16:20:45.932,,1120,-7630,5460
16:20:45.942,,770,-7490,6440
16:20:45.952,,770,-6930,6440
16:20:45.962,,1260,-6860,6510
16:20:45.972,,1120,-6300,7210
16:20:45.982,,1470,-6370,7070
16:20:45.992,,2660,-6860,6860
16:20:46.002,,3150,-6370,7070
16:20:46.012,,3080,-5250,7350
16:20:46.022,,2380,-4130,7420
16:20:46.032,,1610,-3290,7630
16:20:46.042,,770,-2450,7700
16:20:46.052,,280,-1960,7700
16:20:46.062,,700,-2030,7490
16:20:46.072,,1540,-1820,7070
16:20:46.082,,2100,-1190,6930
16:20:46.092,,1610,-280,6790
16:20:46.102,,1470,630,6650
16:20:46.112,,1610,1190,6370
16:20:46.122,,1680,1330,6020
16:20:46.132,,1960,1190,5530
16:20:46.142,,2590,770,4760
16:20:46.152,,3220,210,4130
16:20:46.162,,3360,-70,3640
16:20:46.172,,3080,-70,3290
16:20:46.182,,2450,70,3220
16:20:46.192,,1400,490,3080
16:20:46.202,,-210,1190,2240
16:20:46.212,,-700,1260,1820
16:20:46.222,,-910,1260,1190
16:20:46.232,,-840,1190,700
16:20:46.242,,-700,1050,280
16:20:46.252,,-1120,1120,-210
16:20:46.262,,-1890,1190,-420
16:20:46.272,,-2590,1400,-700
16:20:46.282,,-2800,1610,-980
16:20:46.292,,-2310,1960,-910
16:20:46.302,,-1540,2310,-280
16:20:46.312,,-1400,2380,280
16:20:46.322,,-2240,2240,420
16:20:46.332,,-3920,3220,0
16:20:46.342,,-3220,3850,-280
16:20:46.352,,-1960,4060,-490
16:20:46.362,,-560,3990,-560
16:20:46.372,,280,3780,-560
16:20:46.382,,210,3920,-490
16:20:46.392,,-420,4410,-210
16:20:46.402,,-1750,5460,70
16:20:46.412,,-3360,6580,210
16:20:46.422,,-4690,7490,70
16:20:46.432,,-5460,8120,-210
16:20:46.442,,-5950,8680,-210
16:20:46.452,,-6020,9100,-70
16:20:46.462,,-5600,9520,70
16:20:46.472,,-5180,9940,0
16:20:46.482,,-4900,10430,-210
16:20:46.492,,-4760,10780,-630
16:20:46.502,,-4410,11130,-1190
16:20:46.512,,-3920,11410,-1470
16:20:46.522,,-3850,11690,-1400
16:20:46.531,,-4340,12110,-1260
16:20:46.542,,-5040,12810,-1330
16:20:46.552,,-5670,13230,-1330
16:20:46.703,,-6020,6650,-6090
16:20:46.704,,-6020,6650,-6090
16:20:46.705,,-6020,6650,-6090
16:20:46.707,,-6020,6650,-6090
16:20:46.708,,-6020,6650,-6090
16:20:46.709,,-6020,6650,-6090
16:20:46.711,,-6020,6650,-6090
16:20:46.712,,-5810,6090,-6580
16:20:46.713,,-5810,6090,-6580
16:20:46.715,,-5810,6090,-6580
16:20:46.716,,-5810,6090,-6580
16:20:46.718,,-5810,6090,-6580
16:20:46.719,,-5810,6090,-6580
16:20:46.720,,-5810,6090,-6580
16:20:46.722,,-5040,5740,-7350
16:20:46.723,,-5040,5740,-7350
16:20:46.724,,-5040,5740,-7350
16:20:46.731,,-4200,5250,-7630
16:20:46.741,,-3010,4620,-7490
16:20:46.752,,-2450,4060,-7980
16:20:46.761,,-2030,3220,-8680
16:20:46.771,,-1400,2100,-8820
16:20:46.782,,-700,1190,-8540
16:20:46.791,,-280,700,-8540
16:20:46.801,,-140,70,-8960
16:20:46.812,,210,-490,-8960
16:20:46.821,,560,-910,-8680
16:20:46.831,,1190,-1470,-8470
16:20:46.841,,1540,-1960,-8400
16:20:46.851,,1400,-2100,-8610
16:20:46.861,,1470,-2520,-8610
16:20:46.871,,1330,-2940,-8750
16:20:46.881,,1050,-3150,-8960
16:20:46.891,,700,-3150,-8890
16:20:46.901,,210,-3010,-8540
16:20:46.911,,-350,-3010,-8190
16:20:46.921,,-980,-2800,-8120
16:20:46.931,,-1470,-2590,-8190
16:20:46.941,,-1610,-2730,-8050
16:20:46.951,,-1820,-3150,-7910
16:20:46.961,,-2380,-3430,-7980
16:20:46.971,,-3570,-3290,-7840
16:20:46.981,,-4060,-3360,-7700
16:20:46.991,,-3990,-3360,-7700
16:20:47.001,,-3430,-3150,-7630
16:20:47.011,,-2520,-2870,-7490
16:20:47.021,,-1750,-2660,-7420
16:20:47.031,,-1400,-2730,-7350
16:20:47.041,,-1120,-2660,-7490
16:20:47.051,,-1050,-2590,-7560
16:20:47.061,,-1190,-2660,-7770
16:20:47.071,,-1820,-2520,-7980
16:20:47.081,,-2660,-2030,-8190
16:20:47.091,,-3500,-1050,-8330
16:20:47.101,,-4480,1050,-7280
16:20:47.111,,-4900,2100,-6860
16:20:47.121,,-5040,3010,-6580
16:20:47.131,,-5110,3500,-6510
16:20:47.141,,-5600,3780,-7070
16:20:47.151,,-6160,4550,-7770
16:20:47.161,,-5950,5600,-8610
16:20:47.171,,-4690,6580,-9450
16:20:47.181,,-2590,7350,-10150
16:20:47.191,,-980,7910,-10570
16:20:47.201,,-490,8400,-10990
16:20:47.211,,-910,9100,-11550
16:20:47.221,,-1750,10150,-12320
16:20:47.231,,-3640,13510,-12740
16:20:47.241,,-4690,14700,-13020
16:20:47.251,,-5320,15120,-13510
16:20:47.261,,-5390,14840,-13790
16:20:47.271,,-5880,14350,-13860
16:20:47.281,,-7350,14210,-13930
16:20:47.291,,-8960,14630,-14560
16:20:47.301,,-9730,15330,-15190
16:20:47.311,,-9520,16170,-15400
16:20:47.321,,-9030,16730,-15190
16:20:47.331,,-8610,16870,-14980
16:20:47.341,,-8330,16730,-14910
16:20:47.351,,-7980,16240,-14140
16:20:47.361,,-6930,16380,-13580
16:20:47.371,,-5950,16730,-13090
16:20:47.381,,-4620,16800,-12740
16:20:47.391,,-2590,16310,-12670
16:20:47.401,,70,15050,-12460
16:20:47.411,,2590,13370,-12320
16:20:47.421,,4480,11480,-12460
16:20:47.431,,5670,9660,-12600
16:20:47.441,,6020,8120,-12740
16:20:47.451,,5320,6440,-12740
16:20:47.461,,3570,4760,-12250
16:20:47.471,,980,3290,-11410
16:20:47.481,,-1960,210,-9520
16:20:47.491,,-5740,-1330,-8470
16:20:47.501,,-6090,-2520,-7490
16:20:47.511,,-5390,-3780,-6580
16:20:47.521,,-4060,-5180,-5880
16:20:47.531,,-2730,-6300,-5180
16:20:47.541,,-1540,-7070,-4620
16:20:47.551,,-280,-7070,-3990
16:20:47.561,,700,-6790,-3150
16:20:47.571,,1750,-6650,-2170
16:20:47.581,,3010,-6790,-1260
16:20:47.591,,4760,-7070,-420
16:20:47.601,,6650,-7490,770
16:20:47.611,,9870,-9170,3220
16:20:47.621,,10780,-10150,4270
16:20:47.631,,11480,-11130,5250
16:20:47.641,,11760,-11900,6510
16:20:47.651,,11410,-12250,7700
16:20:47.661,,11130,-12180,8610
16:20:47.671,,10920,-12180,9310
16:20:47.681,,10710,-12320,10080
16:20:47.691,,10360,-13230,10850
16:20:47.701,,9800,-14350,11620
16:20:47.711,,8820,-15190,12600
16:20:47.721,,7280,-16240,13440
16:20:47.731,,5390,-17220,13930
16:20:47.741,,2520,-18410,14000
16:20:47.751,,1750,-19250,13860
16:20:47.761,,1610,-19880,13440
16:20:47.771,,1820,-19950,13160
16:20:47.781,,2310,-19320,13440
16:20:47.791,,2870,-18550,13720
16:20:47.801,,3640,-18480,13930
16:20:47.811,,4760,-18970,14210
16:20:47.821,,5950,-19530,14350
16:20:47.831,,6580,-20020,14140
16:20:47.841,,7140,-20160,13510
16:20:47.851,,7910,-20090,13160
16:20:48.008,,4970,-14420,11970
16:20:48.009,,4970,-14420,11970
16:20:48.011,,3080,-14070,12390
16:20:48.012,,3080,-14070,12390
16:20:48.014,,3080,-14070,12390
16:20:48.015,,3080,-14070,12390
16:20:48.016,,3080,-14070,12390
16:20:48.018,,3080,-14070,12390
16:20:48.019,,3080,-14070,12390
16:20:48.020,,980,-14070,12740
16:20:48.022,,980,-14070,12740
16:20:48.023,,980,-14070,12740
16:20:48.024,,980,-14070,12740
16:20:48.026,,980,-14070,12740
16:20:48.027,,980,-14070,12740
16:20:48.029,,980,-14070,12880
16:20:48.030,,-1190,-14000,12880
16:20:48.031,,-1190,-14000,12880
16:20:48.041,,-2800,-13650,12740
16:20:48.051,,-3640,-13300,12670
16:20:48.061,,-3430,-13510,12880
16:20:48.071,,-2660,-13720,12880
16:20:48.081,,-1540,-14140,12390
16:20:48.091,,-280,-14770,11830
16:20:48.101,,770,-15120,11410
16:20:48.111,,1330,-15050,11270
16:20:48.121,,1260,-14770,11480
16:20:48.131,,-280,-14140,11830
16:20:48.141,,-1540,-13580,12320
16:20:48.151,,-2240,-13370,13020
16:20:48.161,,-2940,-13370,13650
16:20:48.171,,-3430,-13090,14000
16:20:48.181,,-3290,-12880,14280
16:20:48.191,,-2590,-13230,14560
16:20:48.201,,-1610,-13580,14840
16:20:48.211,,-1050,-13440,14770
16:20:48.221,,-420,-13230,14560
16:20:48.231,,210,-12670,14910
16:20:48.241,,630,-11620,15260
16:20:48.251,,1050,-10150,16100
16:20:48.261,,1820,-10780,16590
16:20:48.271,,1610,-11410,16870
16:20:48.281,,1120,-12110,16940
16:20:48.291,,560,-12670,16940
16:20:48.301,,-210,-13090,16800
16:20:48.311,,-1050,-13090,16590
16:20:48.321,,-1610,-13160,16380
16:20:48.331,,-1890,-13230,16380
16:20:48.341,,-2030,-13370,16450
16:20:48.351,,-1960,-13860,16800
16:20:48.361,,-1960,-14700,17430
16:20:48.371,,-2240,-15540,17990
16:20:48.381,,-2870,-16100,18970
16:20:48.391,,-2730,-16310,19250
16:20:48.401,,-2800,-16590,19320
16:20:48.411,,-2940,-16800,19250
16:20:48.421,,-3220,-17080,19250
16:20:48.431,,-3780,-17360,19110
16:20:48.441,,-4410,-17710,18900
16:20:48.451,,-5180,-17920,18830
16:20:48.461,,-5880,-17920,19040
16:20:48.471,,-6650,-17710,19320
16:20:48.481,,-7140,-17360,19740
16:20:48.491,,-7420,-17080,20230
16:20:48.501,,-7490,-16940,20650
16:20:48.511,,-7000,-17010,20510
16:20:48.521,,-6370,-17150,20160
16:20:48.531,,-5530,-17570,19530
16:20:48.541,,-4480,-18200,18760
16:20:48.551,,-3780,-18760,17990
16:20:48.561,,-3290,-19250,17290
16:20:48.571,,-3360,-19670,16730
16:20:48.581,,-3500,-20090,15960
16:20:48.591,,-3780,-20230,15120
16:20:48.601,,-4060,-20160,14630
16:20:48.611,,-4270,-19950,14700
16:20:48.621,,-4760,-19810,14560
16:20:48.631,,-5530,-19530,14280
16:20:48.641,,-6160,-17500,14070
16:20:48.651,,-5670,-16870,13580
16:20:48.661,,-4410,-16170,13090
16:20:48.671,,-2870,-14700,12810
16:20:48.681,,-1610,-14000,12950
16:20:48.691,,-770,-14000,12530
16:20:48.701,,-140,-14000,11620
16:20:48.711,,1050,-13790,10640
16:20:48.721,,3010,-13930,9520
16:20:48.731,,5180,-14140,7770
16:20:48.741,,6930,-14140,5950
16:20:48.751,,7910,-14070,4480
16:20:48.761,,5950,-13720,2030
16:20:48.771,,5040,-13300,1540
16:20:48.781,,7000,-13090,1890
16:20:48.791,,7840,-12740,2520
16:20:48.801,,6370,-11620,3220
16:20:48.811,,2730,-9870,3780
16:20:48.821,,-1400,-8050,3710
16:20:48.831,,-4340,-6790,3010
16:20:48.841,,-4480,-6370,1540
16:20:48.851,,-2660,-5880,70
16:20:48.861,,-210,-5670,-1540
16:20:48.871,,1890,-5880,-3010
16:20:48.881,,3220,-6230,-4060
16:20:48.891,,3640,-7000,-6510
16:20:48.901,,2870,-6720,-7560
16:20:48.911,,2030,-5530,-8540
16:20:48.921,,910,-4410,-9310
16:20:48.931,,280,-3850,-9730
16:20:48.941,,210,-3780,-9800
16:20:48.951,,350,-4270,-10080
16:20:48.961,,630,-4760,-10920
16:20:48.971,,1050,-4900,-11970
16:20:48.981,,1330,-5040,-13160
16:20:48.991,,1400,-5390,-14560
16:20:49.001,,1260,-5530,-15960
16:20:49.011,,1190,-5250,-16800
16:20:49.021,,840,-2940,-16450
16:20:49.031,,-770,-1750,-14910
16:20:49.041,,-1260,-840,-13160
16:20:49.051,,-1960,-280,-11900
16:20:49.061,,-2310,70,-11340
16:20:49.071,,-2240,280,-10990
16:20:49.081,,-1890,-140,-10710
16:20:49.091,,-1190,-1190,-10640
16:20:49.101,,-350,-2170,-10640
16:20:49.111,,280,-3080,-11200
16:20:49.121,,770,-3920,-11200
16:20:49.131,,1120,-4760,-11060
16:20:49.283,,-1330,-840,-10220
16:20:49.284,,-1330,-840,-10220
16:20:49.285,,-1330,-840,-10220
16:20:49.287,,-1330,-840,-10220
16:20:49.288,,-1330,-840,-10220
16:20:49.290,,-1330,-840,-10220
16:20:49.291,,-1260,-1260,-10640
16:20:49.292,,-1260,-1260,-10640
16:20:49.294,,-1260,-1260,-10640
16:20:49.295,,-1260,-1260,-10640
16:20:49.296,,-1260,-1260,-10640
16:20:49.298,,-1260,-1260,-10640
16:20:49.299,,-1260,-1260,-10640
16:20:49.301,,-1680,-1470,-10570
16:20:49.302,,-1680,-1470,-10570
16:20:49.303,,-1680,-1470,-10570
16:20:49.305,,-1680,-1470,-10570
16:20:49.311,,-2520,-2030,-10360
16:20:49.321,,-3780,-2800,-10290
16:20:49.331,,-5600,-3290,-10220
16:20:49.341,,-7630,-3430,-9660
16:20:49.351,,-10080,-3430,-8540
16:20:49.361,,-12740,-3780,-7280
16:20:49.371,,-15190,-4200,-5950
16:20:49.381,,-17570,-4410,-4550
16:20:49.391,,-19810,-4620,-3710
16:20:49.401,,-21630,-4690,-3290
16:20:49.411,,-16590,-4760,-2170
16:20:49.421,,-11130,-4900,-2240
16:20:49.431,,-5250,-5600,-2100
16:20:49.441,,70,-6510,-2170
16:20:49.451,,3850,-7280,-2380
16:20:49.461,,6580,-7630,-2030
16:20:49.471,,8540,-7560,-1470
16:20:49.481,,9170,-6930,-1050
16:20:49.491,,9030,-6720,-560
16:20:49.501,,8120,-7000,-210
16:20:49.511,,7210,-7560,-280
16:20:49.521,,6300,-8260,-420
16:20:49.531,,5530,-8960,700
16:20:49.541,,4900,-10640,1890
16:20:49.551,,4480,-11620,3010
16:20:49.561,,3360,-12250,4410
16:20:49.571,,1960,-12600,5460
16:20:49.581,,630,-12530,6020
16:20:49.591,,-560,-11970,6230
16:20:49.601,,-1400,-11620,6440
16:20:49.611,,-1610,-11550,6720
16:20:49.621,,-1540,-11550,7000
16:20:49.631,,-1540,-11760,7070
16:20:49.641,,-1050,-12180,7140
16:20:49.651,,-70,-12320,7070
16:20:49.661,,1330,-11130,6440
16:20:49.671,,4410,-10780,6300
16:20:49.681,,5180,-10710,6300
16:20:49.691,,5320,-10640,6300
16:20:49.701,,4970,-10360,6020
16:20:49.711,,4410,-10220,5670
16:20:49.721,,3920,-10500,5530
16:20:49.731,,3710,-10990,5740
16:20:49.741,,3290,-11480,5950
16:20:49.751,,2800,-11830,6090
16:20:49.761,,2240,-11970,6160
16:20:49.771,,2100,-11970,6090
16:20:49.781,,2240,-12040,5670
16:20:49.791,,1470,-10990,5110
16:20:49.801,,490,-10710,5040
16:20:49.811,,-630,-10640,5250
16:20:49.821,,-1960,-10360,5530
16:20:49.831,,-3220,-10290,5460
16:20:49.841,,-4970,-9730,5040
16:20:49.851,,-4130,-9520,5530
16:20:49.861,,-1260,-9800,6300
16:20:49.871,,420,-9660,6580
16:20:49.881,,770,-9380,6860
16:20:49.891,,1400,-8890,6930
16:20:49.901,,2310,-8260,6440
16:20:49.911,,3640,-7910,5530
16:20:49.921,,8750,-7630,3640
16:20:49.931,,11410,-7840,3430
16:20:49.941,,12810,-8050,3080
16:20:49.951,,13020,-7840,2870
16:20:49.961,,11900,-7490,3010
16:20:49.971,,9940,-6930,3360
16:20:49.981,,7840,-6580,3500
16:20:49.991,,5880,-6440,3220
16:20:50.001,,4620,-6510,2870
16:20:50.011,,3640,-7070,2590
16:20:50.021,,2730,-7700,2170
16:20:50.031,,2450,-8050,1960
16:20:50.041,,2170,-8050,2170
16:20:50.051,,1750,-6090,3500
16:20:50.061,,1470,-4550,4340
16:20:50.071,,980,-3080,4900
16:20:50.081,,1610,-2030,5460
16:20:50.091,,2380,-1330,5670
16:20:50.101,,3850,-770,5530
16:20:50.111,,6020,-420,5530
16:20:50.121,,7910,140,5740
16:20:50.131,,8330,1120,5950
16:20:50.141,,7770,2170,5880
16:20:50.151,,6370,3220,5600
16:20:50.161,,5880,4130,5390
16:20:50.171,,6650,4690,5320
16:20:50.181,,7420,4830,5110
16:20:50.191,,6860,5040,4830
16:20:50.201,,6300,5110,4690
16:20:50.211,,5250,5110,4900
16:20:50.221,,3710,5320,5530
16:20:50.231,,1540,5670,6160
16:20:50.241,,-980,6160,6020
16:20:50.251,,-3150,6790,5530
16:20:50.261,,-4480,7210,4900
16:20:50.271,,-4340,7070,4900
16:20:50.281,,-3500,6720,4690
16:20:50.291,,-3150,6650,3780
16:20:50.301,,-3080,6650,1610
16:20:50.311,,-2800,7560,700
16:20:50.321,,-1750,7840,840
16:20:50.331,,0,8050,1330
16:20:50.341,,1260,8330,1610
16:20:50.351,,1610,8540,2030
16:20:50.361,,1470,8750,2310
16:20:50.371,,1400,8890,2590
16:20:50.381,,2310,8680,3080
16:20:50.391,,3850,8330,3990
16:20:50.401,,4760,7980,4620
16:20:50.411,,4480,7420,4620
16:20:50.421,,3570,7210,4620
16:20:50.431,,2590,7840,4830
16:20:50.441,,490,8400,4970
16:20:50.451,,-490,8400,5530
16:20:50.461,,-1260,8260,6090
16:20:50.471,,-1750,8260,6370
16:20:50.622,,4410,840,4480
16:20:50.623,,4410,840,4480
16:20:50.625,,4410,840,4480
16:20:50.626,,4410,-140,4830
16:20:50.627,,4130,-140,4830
16:20:50.629,,4130,-140,4830
16:20:50.630,,4130,-140,4830
16:20:50.631,,4130,-140,4830
16:20:50.633,,4130,-140,4830
16:20:50.634,,4130,-140,4830
16:20:50.635,,3850,-840,4760
16:20:50.637,,3850,-840,4760
16:20:50.638,,3850,-840,4760
16:20:50.640,,3850,-840,4760
16:20:50.641,,3850,-840,4760
16:20:50.642,,3850,-840,4760
16:20:50.644,,3850,-840,4760
16:20:50.651,,2940,-1050,4410
16:20:50.661,,1890,-1120,3920
16:20:50.671,,1750,-1610,3570
16:20:50.681,,1330,-2310,3290
16:20:50.691,,-210,-3920,3640
16:20:50.701,,-1120,-4480,3780
16:20:50.711,,-1540,-4550,3780
16:20:50.721,,-1400,-4410,3780
16:20:50.731,,-630,-4340,3850
16:20:50.741,,490,-4270,3710
16:20:50.751,,1610,-4200,3570
16:20:50.761,,2310,-4410,3640
16:20:50.771,,2800,-4900,3920
16:20:50.781,,2730,-5110,4270
16:20:50.791,,2170,-5110,4480
16:20:50.801,,1750,-5040,4550
16:20:50.811,,1890,-4830,4550
16:20:50.821,,3710,-3850,4620
16:20:50.831,,4270,-4060,4970
16:20:50.841,,4060,-4340,5040
16:20:50.851,,3990,-4690,4760
16:20:50.861,,3780,-4690,4410
16:20:50.871,,3360,-4550,4130
16:20:50.881,,2660,-4550,3990
16:20:50.891,,1890,-4480,4060
16:20:50.901,,1260,-4270,4200
16:20:50.911,,840,-3920,4550
16:20:50.921,,350,-3710,4830
16:20:50.931,,70,-3640,4830
16:20:50.941,,140,-3640,4480
16:20:50.951,,490,-3850,4270
16:20:50.961,,560,-3710,3990
16:20:50.971,,840,-3290,3640
16:20:50.981,,1050,-2940,3290
16:20:50.991,,1330,-2800,2730
16:20:51.001,,1610,-2520,1960
16:20:51.011,,2240,-1960,1400
16:20:51.021,,3360,-1680,1120
16:20:51.031,,4200,-1610,1050
16:20:51.041,,4340,-1260,980
16:20:51.051,,4340,-910,980
16:20:51.061,,4060,-560,1050
16:20:51.071,,3360,-140,980
16:20:51.081,,1820,-210,770
16:20:51.091,,1540,-280,910
16:20:51.101,,1120,-420,1050
16:20:51.111,,980,-420,770
16:20:51.121,,1050,0,700
16:20:51.131,,560,0,1120
16:20:51.141,,-280,-210,1330
16:20:51.151,,-770,0,1190
16:20:51.161,,-140,420,1050
16:20:51.171,,1190,560,1120
16:20:51.181,,2240,280,1050
16:20:51.191,,2450,70,980
16:20:51.201,,1050,140,1260
16:20:51.211,,630,350,1470
16:20:51.221,,0,560,1260
16:20:51.231,,-140,350,1120
16:20:51.241,,-280,70,1260
16:20:51.251,,-350,-70,1330
16:20:51.261,,-280,-210,1260
16:20:51.271,,0,-420,1190
16:20:51.281,,630,-700,1190
16:20:51.291,,1190,-840,840
16:20:51.301,,1680,-840,350
16:20:51.311,,1820,-700,-140
16:20:51.321,,1610,-560,-490
16:20:51.331,,980,-980,-840
16:20:51.341,,770,-1120,-700
16:20:51.351,,700,-980,-490
16:20:51.361,,700,-560,-70
16:20:51.371,,210,0,350
16:20:51.381,,-280,630,560
16:20:51.391,,140,1050,700
16:20:51.401,,1190,1050,770
16:20:51.411,,1680,910,700
16:20:51.421,,1960,1260,420
16:20:51.431,,2450,1680,70
16:20:51.441,,2660,1610,70
16:20:51.451,,2310,1260,-280
16:20:51.461,,1890,2380,-2450
16:20:51.471,,2520,3430,-3500
16:20:51.481,,2800,3850,-4410
16:20:51.491,,2380,3780,-5390
16:20:51.501,,1960,4200,-5950
16:20:51.511,,1470,5110,-6160
16:20:51.521,,280,6300,-6370
16:20:51.531,,-1050,7630,-6510
16:20:51.541,,-2030,9030,-6580
16:20:51.551,,-2660,10360,-6440
16:20:51.561,,-3220,11550,-6580
16:20:51.571,,-3290,12530,-6930
16:20:51.581,,-2730,13440,-7560
16:20:51.591,,630,15260,-9100
16:20:51.601,,2100,15960,-9730
16:20:51.611,,3220,16730,-9870
16:20:51.621,,3570,17430,-9660
16:20:51.631,,3080,17780,-9170
16:20:51.641,,2520,18130,-8680
16:20:51.651,,2310,18480,-8330
16:20:51.661,,2520,18340,-8330
16:20:51.671,,3290,17360,-8610
16:20:51.681,,3990,16030,-9030
16:20:51.691,,4480,15050,-9660
16:20:51.701,,4410,14700,-10150
16:20:51.711,,3640,14910,-10430
16:20:51.721,,1890,14630,-10150
16:20:51.731,,1260,14630,-9380
16:20:51.741,,910,14490,-8190
16:20:51.751,,840,14070,-7070
16:20:51.761,,1120,13790,-6300
16:20:51.771,,1540,13790,-5740
16:20:51.781,,1680,14630,-5320
16:20:51.791,,1190,16310,-5250
16:20:51.801,,490,18060,-5950
16:20:51.811,,770,18830,-6790
16:20:51.821,,2170,18340,-8050
16:20:51.831,,3710,16660,-9520
16:20:51.841,,4480,12740,-12320
16:20:51.851,,3640,11690,-13580
16:20:51.861,,2730,11270,-14350
16:20:52.012,,2730,13930,-11620
16:20:52.013,,2730,13930,-11620
16:20:52.015,,2730,13930,-11620
16:20:52.016,,2730,13930,-11620
16:20:52.017,,3360,13230,-11410
16:20:52.019,,3360,13230,-11410
16:20:52.020,,3360,13230,-11410
16:20:52.021,,3360,13230,-11410
16:20:52.023,,3360,13230,-11410
16:20:52.024,,3360,13230,-11410
16:20:52.026,,3360,13230,-11410
16:20:52.027,,3570,12600,-11060
16:20:52.028,,3570,12600,-11060
16:20:52.030,,3570,12600,-11060
16:20:52.031,,3570,12600,-11060
16:20:52.032,,3570,12600,-11060
16:20:52.034,,3570,12600,-11060
16:20:52.041,,3080,12250,-10640
16:20:52.051,,2380,12040,-10220
16:20:52.061,,1820,11760,-9800
16:20:52.071,,1330,11620,-9590
16:20:52.081,,420,11690,-9660
16:20:52.091,,-210,11480,-9660
16:20:52.101,,-350,10850,-9660
16:20:52.111,,-420,10570,-9660
16:20:52.121,,-420,10150,-9730
16:20:52.131,,-350,9870,-10010
16:20:52.141,,-420,9800,-10360
16:20:52.151,,-350,10150,-10430
16:20:52.161,,-280,10430,-10360
16:20:52.171,,0,10430,-10010
16:20:52.181,,420,10430,-9520
16:20:52.191,,630,10710,-8890
16:20:52.201,,630,11130,-8610
16:20:52.211,,700,11270,-8680
16:20:52.221,,700,11480,-8890
16:20:52.231,,840,11970,-9450
16:20:52.241,,560,11620,-9800
16:20:52.251,,-210,10640,-9940
16:20:52.261,,-1260,9730,-10150
16:20:52.271,,-1960,9730,-10220
16:20:52.281,,-2800,10920,-10570
16:20:52.291,,-3360,13020,-10710
16:20:52.301,,-1330,14280,-10150
16:20:52.311,,1050,14770,-9870
16:20:52.321,,2170,14630,-9660
16:20:52.331,,3010,14350,-9170
16:20:52.341,,3640,14350,-8610
16:20:52.351,,3570,14630,-8330
16:20:52.361,,3640,15050,-8330
16:20:52.371,,3920,14630,-8330
16:20:52.381,,4060,14140,-8540
16:20:52.391,,4130,13790,-8890
16:20:52.401,,4200,13720,-9100
16:20:52.411,,4200,13580,-9100
16:20:52.421,,3850,13300,-9100
16:20:52.431,,3010,13020,-9100
16:20:52.441,,1960,12740,-8820
16:20:52.451,,980,12460,-8470
16:20:52.461,,490,12180,-8330
16:20:52.471,,490,12110,-8260
16:20:52.481,,700,11900,-7770
16:20:52.491,,910,11410,-7630
16:20:52.501,,1120,11200,-7560
16:20:52.511,,1260,11340,-7560
16:20:52.521,,1470,11270,-7490
16:20:52.531,,1680,11130,-7280
16:20:52.541,,1820,11200,-7140
16:20:52.551,,1820,11270,-7000
16:20:52.561,,1680,11270,-6930
16:20:52.571,,1610,11200,-7140
16:20:52.581,,1680,11270,-7280
16:20:52.591,,1890,11480,-7280
16:20:52.601,,2170,11900,-7140
16:20:52.611,,2380,12600,-6230
16:20:52.621,,1890,12950,-5670
16:20:52.631,,1540,13440,-5180
16:20:52.641,,1400,13860,-5040
16:20:52.651,,1680,14210,-5040
16:20:52.661,,2590,14700,-5390
16:20:52.671,,3430,14700,-5390
16:20:52.681,,3570,14280,-5320
16:20:52.691,,2800,14140,-5460
16:20:52.701,,2170,14420,-5530
16:20:52.711,,2380,14700,-5460
16:20:52.721,,3220,14910,-5460
16:20:52.731,,4130,15050,-5600
16:20:52.741,,4900,14420,-6090
16:20:52.751,,4620,13930,-6090
16:20:52.761,,3710,13860,-6090
16:20:52.771,,2520,14070,-5880
16:20:52.781,,1260,14070,-5530
16:20:52.791,,140,14140,-5250
16:20:52.801,,-840,14210,-4900
16:20:52.811,,-1330,14070,-4690
16:20:52.821,,-1120,13930,-4480
16:20:52.831,,-630,13860,-4480
16:20:52.841,,70,13860,-4690
16:20:52.851,,770,13860,-5040
16:20:52.861,,1400,13650,-5180
16:20:52.871,,1750,13090,-5600
16:20:52.881,,1960,12810,-5600
16:20:52.891,,1960,12810,-5600
16:20:52.901,,1680,13020,-5460
16:20:52.911,,1470,13230,-5460
16:20:52.921,,1330,13370,-5600
16:20:52.931,,1260,13510,-5740
16:20:52.941,,1540,13580,-5950
16:20:52.951,,1820,13510,-5950
16:20:52.961,,1960,13720,-5880
16:20:52.971,,2170,14070,-5810
16:20:52.981,,2170,14490,-5600
16:20:52.991,,1750,14700,-5320
16:20:53.001,,700,15050,-4830
16:20:53.011,,140,14980,-4620
16:20:53.021,,-490,14770,-4620
16:20:53.031,,-980,14700,-4970
16:20:53.041,,-1190,14630,-5460
16:20:53.051,,-1330,14630,-5880
16:20:53.061,,-1330,14700,-6230
16:20:53.071,,-1470,14840,-6370
16:20:53.081,,-1680,15190,-6300
16:20:53.091,,-1890,15680,-6300
16:20:53.101,,-2030,15960,-6090
16:20:53.111,,-2380,16170,-5880
16:20:53.121,,-2870,16450,-5250
16:20:53.131,,-3640,17220,-5250
16:20:53.141,,-3430,17220,-5460
16:20:53.151,,-3010,17150,-5810
16:20:53.161,,-2450,17150,-6440
16:20:53.171,,-1610,17080,-7210
16:20:53.181,,-840,17150,-7560
16:20:53.338,,-3150,9870,-5530
16:20:53.339,,-3150,9870,-5530
16:20:53.340,,-3150,9870,-5530
16:20:53.342,,-3150,9870,-5530
16:20:53.343,,-3150,9870,-5530
16:20:53.344,,-2660,8960,-5320
16:20:53.346,,-2660,8960,-5320
16:20:53.347,,-2660,8960,-5320
16:20:53.348,,-2660,8960,-5320
16:20:53.350,,-2660,8960,-5320
16:20:53.351,,-2660,8960,-5320
16:20:53.353,,-2660,8960,-5320
16:20:53.354,,-1680,8050,-5110
16:20:53.355,,-1680,8050,-5110
16:20:53.357,,-1680,8050,-5110
16:20:53.358,,-1680,8050,-5110
16:20:53.359,,-1680,8050,-5110
16:20:53.361,,-1680,8050,-5110
16:20:53.371,,-630,7210,-5040
16:20:53.381,,630,6580,-4830
16:20:53.391,,1120,6230,-4550
16:20:53.401,,1470,6020,-4060
16:20:53.411,,1470,5600,-3570
16:20:53.421,,1470,5110,-3290
16:20:53.431,,1750,4410,-3220
16:20:53.441,,2590,3640,-3080
16:20:53.451,,3780,3080,-2520
16:20:53.461,,4130,2240,-1890
16:20:53.471,,3570,1400,-1610
16:20:53.481,,2800,770,-1400
16:20:53.491,,2520,280,-980
16:20:53.501,,3010,-560,-770
16:20:53.511,,4340,-2870,-560
16:20:53.521,,4060,-3990,-280
16:20:53.531,,3360,-4690,-70
16:20:53.541,,2450,-5040,420
16:20:53.551,,1330,-5600,910
16:20:53.561,,280,-6580,1120
16:20:53.571,,-420,-7560,1120
16:20:53.581,,-350,-8470,1050
16:20:53.591,,-70,-9520,980
16:20:53.601,,420,-10710,1120
16:20:53.611,,1050,-11830,1260
16:20:53.621,,1610,-12600,1400
16:20:53.631,,2170,-13090,1400
16:20:53.641,,3150,-14560,1540
16:20:53.651,,3640,-15540,1890
16:20:53.661,,3850,-16660,2240
16:20:53.671,,4060,-17710,2450
16:20:53.681,,4270,-18760,2520
16:20:53.691,,4690,-19530,2660
16:20:53.701,,4900,-20300,2870
16:20:53.711,,5040,-21070,3080
16:20:53.721,,5460,-22050,3500
16:20:53.731,,5740,-23030,4270
16:20:53.741,,5600,-24010,4830
16:20:53.751,,5250,-24640,5110
16:20:53.761,,4830,-24990,5530
16:20:53.771,,3920,-26110,6160
16:20:53.781,,3430,-26740,6300
16:20:53.791,,3220,-27160,6440
16:20:53.801,,3150,-27580,6650
16:20:53.811,,3080,-27860,7210
16:20:53.821,,2590,-28210,7980
16:20:53.831,,2100,-28770,8680
16:20:53.841,,1890,-29190,9100
16:20:53.851,,2240,-29470,9450
16:20:53.861,,2800,-29960,9520
16:20:53.871,,3360,-30450,9450
16:20:53.881,,3710,-30940,9520
16:20:53.891,,3850,-31500,9660
16:20:53.901,,2940,-31990,10080
16:20:53.911,,2100,-31780,10710
16:20:53.921,,1190,-31920,11340
16:20:53.931,,140,-32340,11970
16:20:53.941,,-910,-32480,12460
16:20:53.951,,-1820,-32340,12600
16:20:53.961,,-2030,-32200,12880
16:20:53.971,,-2100,-32130,13230
16:20:53.981,,-2240,-31850,13580
16:20:53.991,,-2030,-31640,13790
16:20:54.001,,-1750,-31570,13580
16:20:54.011,,-1330,-31710,13160
16:20:54.021,,350,-33180,13580
16:20:54.031,,1680,-33600,12670
16:20:54.041,,1960,-34160,12110
16:20:54.051,,2450,-34440,11900
16:20:54.061,,2520,-34370,11830
16:20:54.071,,2240,-34160,12250
16:20:54.081,,1960,-33880,12950
16:20:54.091,,1750,-33460,13650
16:20:54.101,,1610,-33250,13930
16:20:54.111,,1750,-33250,14000
16:20:54.121,,1890,-33390,14000
16:20:54.131,,1960,-33250,13790
16:20:54.141,,1960,-32970,13510
16:20:54.151,,2030,-32690,13230
16:20:54.161,,2240,-32760,13370
16:20:54.171,,2240,-32900,13650
16:20:54.181,,2100,-32970,13930
16:20:54.191,,1960,-32900,14140
16:20:54.201,,2170,-32480,14000
16:20:54.211,,2520,-31850,13930
16:20:54.221,,2380,-31780,14350
16:20:54.231,,1540,-31920,14490
16:20:54.241,,560,-31920,14420
16:20:54.251,,420,-31990,14630
16:20:54.261,,1190,-32410,14770
16:20:54.271,,2100,-32620,14560
16:20:54.281,,2450,-32340,14490
16:20:54.291,,1890,-31850,14490
16:20:54.301,,1330,-31150,14490
16:20:54.311,,980,-30660,14630
16:20:54.321,,350,-30240,14910
16:20:54.331,,-210,-29960,14840
16:20:54.341,,-280,-30100,14840
16:20:54.351,,210,-30030,14840
16:20:54.361,,910,-29610,14980
16:20:54.371,,1890,-29050,15120
16:20:54.381,,2800,-28490,15260
16:20:54.391,,3640,-28350,15260
16:20:54.401,,4270,-28490,15400
16:20:54.411,,4760,-28840,14980
16:20:54.421,,4410,-28700,14910
16:20:54.431,,3990,-28490,14910
16:20:54.441,,3850,-28770,14840
16:20:54.451,,3990,-29540,14770
16:20:54.461,,4060,-30520,14700
16:20:54.471,,3990,-31500,14700
16:20:54.481,,3920,-32270,14840
16:20:54.491,,3850,-32480,14980
16:20:54.642,,3290,-33670,17010
16:20:54.643,,2940,-33670,17710
16:20:54.644,,2940,-33670,17710
16:20:54.646,,2940,-33670,17710
16:20:54.647,,2940,-33670,17710
16:20:54.649,,2940,-33670,17710
16:20:54.650,,2940,-33670,17710
16:20:54.651,,2940,-33670,18340
16:20:54.653,,3080,-33810,18340
16:20:54.654,,3080,-33810,18340
16:20:54.655,,3080,-33810,18340
16:20:54.657,,3080,-33810,18340
16:20:54.658,,3080,-33810,18340
16:20:54.659,,3080,-33810,18340
16:20:54.661,,3570,-34230,18760
16:20:54.662,,3570,-34230,18760
16:20:54.664,,3570,-34230,18760
16:20:54.671,,4340,-34930,19040
16:20:54.681,,5180,-35350,19250
16:20:54.691,,5670,-35560,19600
16:20:54.701,,5950,-35770,20090
16:20:54.711,,6160,-36190,20370
16:20:54.721,,6510,-36540,20510
16:20:54.731,,6860,-36890,20860
16:20:54.741,,7070,-37310,21140
16:20:54.751,,7070,-37800,21560
16:20:54.761,,6580,-38290,22330
16:20:54.771,,5670,-38710,23100
16:20:54.781,,4270,-39130,23730
16:20:54.791,,3080,-40040,24500
16:20:54.801,,1190,-40600,24850
16:20:54.811,,350,-41020,24570
16:20:54.821,,-280,-41370,24220
16:20:54.831,,-140,-41440,23940
16:20:54.841,,560,-41300,24010
16:20:54.851,,1750,-41020,24010
16:20:54.861,,3010,-40320,24150
16:20:54.871,,4340,-39410,24640
16:20:54.881,,5320,-38780,25340
16:20:54.891,,5740,-38570,25760
16:20:54.901,,5530,-38500,25760
16:20:54.911,,5180,-38150,25340
16:20:54.921,,6930,-37940,22890
16:20:54.931,,8610,-38080,21420
16:20:54.941,,9940,-38010,20300
16:20:54.951,,10080,-37870,19670
16:20:54.961,,8820,-37310,19460
16:20:54.971,,6370,-36680,19880
16:20:54.981,,4130,-35770,20860
16:20:54.991,,2870,-34930,21700
16:20:55.001,,2450,-34370,22330
16:20:55.011,,2240,-34020,22820
16:20:55.021,,1960,-33390,22750
16:20:55.031,,1890,-32340,21910
16:20:55.041,,2310,-31010,21140
16:20:55.051,,2940,-27790,20580
16:20:55.061,,3080,-26390,20160
16:20:55.071,,3220,-25060,19600
16:20:55.081,,3290,-23800,18900
16:20:55.091,,3290,-22680,17710
16:20:55.101,,3640,-21630,16240
16:20:55.111,,4620,-20720,14700
16:20:55.121,,5460,-19460,13370
16:20:55.131,,5950,-17920,12320
16:20:55.141,,5740,-16520,11550
16:20:55.151,,4830,-15330,11130
16:20:55.161,,4200,-14280,10640
16:20:55.171,,3920,-13300,10290
16:20:55.181,,1890,-10920,9520
16:20:55.191,,840,-9940,8470
16:20:55.201,,490,-9170,6790
16:20:55.211,,1120,-8470,4690
16:20:55.221,,2380,-8120,2940
16:20:55.231,,2520,-7280,1960
16:20:55.241,,1960,-5670,1050
16:20:55.251,,2940,-4620,70
16:20:55.261,,3990,-3570,70
16:20:55.271,,3430,-1610,490
16:20:55.281,,2310,350,560
16:20:55.291,,1890,1890,280
16:20:55.301,,1820,3010,-770
16:20:55.311,,980,5040,-2030
16:20:55.321,,700,6090,-3570
16:20:55.331,,980,7070,-4830
16:20:55.341,,1540,8120,-5530
16:20:55.351,,2310,9170,-5880
16:20:55.361,,2870,10290,-5740
16:20:55.371,,3080,11620,-5530
16:20:55.381,,3080,13020,-5600
16:20:55.391,,3220,14210,-5530
16:20:55.401,,3290,15190,-5460
16:20:55.411,,3640,15680,-5530
16:20:55.421,,4060,16030,-5740
16:20:55.431,,4550,16870,-6510
16:20:55.441,,5810,16870,-6930
16:20:55.451,,5460,17570,-6580
16:20:55.461,,5460,17850,-6790
16:20:55.471,,5390,17640,-7420
16:20:55.481,,4970,17500,-7630
16:20:55.491,,3990,17640,-7420
16:20:55.501,,2520,17710,-7210
16:20:55.511,,700,17920,-7000
16:20:55.521,,-980,18060,-6790
16:20:55.531,,-1960,18130,-6860
16:20:55.541,,-2100,18130,-7140
16:20:55.551,,-1960,18060,-7350
16:20:55.561,,-1960,17920,-7280
16:20:55.571,,-2450,18200,-7210
16:20:55.581,,-2870,18620,-7140
16:20:55.591,,-3010,18900,-7210
16:20:55.601,,-2940,18830,-7280
16:20:55.611,,-3150,18690,-7490
16:20:55.621,,-3990,18830,-7630
16:20:55.631,,-5110,19040,-7910
16:20:55.641,,-6440,19320,-8050
16:20:55.651,,-7560,19600,-7980
16:20:55.661,,-8120,19460,-7770
16:20:55.671,,-8330,19390,-7420
16:20:55.681,,-8120,19460,-7280
16:20:55.691,,-5250,19390,-6930
16:20:55.701,,-3570,18760,-6930
16:20:55.711,,-2240,18270,-7420
16:20:55.721,,-1400,18270,-8190
16:20:55.731,,-210,18410,-8960
16:20:55.741,,1820,17990,-9940
16:20:55.751,,4200,16940,-11060
16:20:55.761,,6160,15820,-11900
16:20:55.771,,7280,14770,-12460
16:20:55.781,,7490,13860,-12880
16:20:55.791,,7070,12880,-13090
16:20:55.945,,1330,-3570,-7140
16:20:55.946,,1330,-3570,-7140
16:20:55.948,,1330,-3570,-7140
16:20:55.949,,1330,-3570,-7140
16:20:55.950,,2800,-3920,-6860
16:20:55.952,,2800,-3920,-6860
16:20:55.953,,2800,-3920,-6860
16:20:55.954,,2800,-3920,-6860
16:20:55.956,,2800,-3920,-6860
16:20:55.957,,2800,-3920,-6860
16:20:55.958,,2800,-3920,-6860
16:20:55.960,,3710,-4270,-6370
16:20:55.961,,3710,-4270,-6370
16:20:55.963,,3710,-4270,-6370
16:20:55.964,,3710,-4270,-6370
16:20:55.965,,3710,-4270,-6370
16:20:55.967,,3710,-4270,-6370
16:20:55.971,,4340,-4830,-5600
16:20:55.981,,4480,-5530,-4760
16:20:55.991,,4130,-6160,-3780
16:20:56.000,,3360,-6440,-2870
16:20:56.010,,2310,-6650,-2030
16:20:56.020,,1050,-7000,-1260
16:20:56.030,,70,-7070,-700
16:20:56.040,,-630,-6860,-140
16:20:56.050,,-980,-6650,420
16:20:56.060,,-980,-6860,1050
16:20:56.070,,-630,-7210,2730
16:20:56.080,,420,-7490,3430
16:20:56.090,,980,-7490,3710
16:20:56.100,,1750,-7490,3780
16:20:56.110,,2730,-7490,3710
16:20:56.120,,3710,-7490,3360
16:20:56.130,,4620,-7980,2730
16:20:56.140,,5740,-8890,2030
16:20:56.150,,6790,-9660,1260
16:20:56.160,,7280,-10220,420
16:20:56.170,,7560,-10500,-70
16:20:56.180,,7560,-10710,-140
16:20:56.190,,7280,-10990,210
16:20:56.200,,6650,-11970,560
16:20:56.210,,5810,-12600,420
16:20:56.220,,5600,-13370,210
16:20:56.230,,4970,-13580,-70
16:20:56.240,,3920,-13510,-350
16:20:56.250,,2170,-13090,-420
16:20:56.260,,-140,-13090,-770
16:20:56.270,,-630,-14070,280
16:20:56.280,,-840,-14280,490
16:20:56.290,,-1470,-14210,70
16:20:56.300,,-1890,-14280,560
16:20:56.310,,-2730,-13720,1050
16:20:56.320,,-2940,-12460,1190
16:20:56.330,,-1050,-9240,1050
16:20:56.340,,560,-7910,1190
16:20:56.350,,2450,-6580,1190
16:20:56.360,,4270,-4970,980
16:20:56.370,,6020,-3570,910
16:20:56.380,,7210,-2450,770
16:20:56.390,,8470,-1540,700
16:20:56.400,,9590,-980,630
16:20:56.410,,10640,-840,1050
16:20:56.420,,11200,-700,1260
16:20:56.430,,10850,-350,1260
16:20:56.440,,10080,210,1330
16:20:56.450,,9520,630,1470
16:20:56.460,,8890,630,1960
16:20:56.470,,7910,280,1960
16:20:56.480,,6090,-70,1680
16:20:56.490,,4550,-210,1260
16:20:56.500,,4200,-70,980
16:20:56.510,,5040,-140,700
16:20:56.520,,5950,-350,490
16:20:56.530,,6510,-630,350
16:20:56.540,,6720,-910,420
16:20:56.550,,6160,-840,490
16:20:56.560,,5390,-630,350
16:20:56.570,,4620,-280,280
16:20:56.580,,3570,-280,70
16:20:56.590,,2030,-1120,-560
16:20:56.600,,1470,-1610,-700
16:20:56.610,,770,-1890,-420
16:20:56.620,,-210,-2030,210
16:20:56.630,,-1120,-1750,910
16:20:56.640,,-1890,-560,1610
16:20:56.650,,-1540,980,2170
16:20:56.660,,630,980,2170
16:20:56.670,,2380,980,2450
16:20:56.680,,3990,1820,2450
16:20:56.690,,5460,1820,2380
16:20:56.700,,6020,1750,2100
16:20:56.710,,5040,2520,1680
16:20:56.720,,3360,3640,1750
16:20:56.730,,3570,3710,1750
16:20:56.740,,3570,3920,1960
16:20:56.750,,3780,4410,2100
16:20:56.760,,4130,4830,2170
16:20:56.770,,4410,5110,2310
16:20:56.780,,4550,5320,2520
16:20:56.790,,4060,5740,2660
16:20:56.800,,3150,6230,3010
16:20:56.810,,2170,6230,3360
16:20:56.820,,1050,6020,3500
16:20:56.830,,350,5460,3360
16:20:56.840,,-70,4340,2940
16:20:56.850,,-420,3920,2310
16:20:56.860,,-280,3640,1680
16:20:56.870,,210,3500,1120
16:20:56.880,,770,3360,630
16:20:56.890,,980,3290,560
16:20:56.900,,770,3290,840
16:20:56.910,,140,3570,1260
16:20:56.920,,-770,3710,1680
16:20:56.930,,-1470,3780,1820
16:20:56.940,,-1960,3920,1890
16:20:56.950,,-2380,4060,1820
16:20:56.960,,-2520,4130,1540
16:20:56.970,,-2240,4060,770
16:20:56.980,,-1260,4060,630
16:20:56.990,,-910,4200,420
16:20:57.000,,-770,4480,350
16:20:57.010,,-1400,4690,-490
16:20:57.020,,-1400,4620,-420
16:20:57.030,,-980,4620,-70
16:20:57.040,,-1470,4760,-280
16:20:57.050,,-2240,4270,-140
16:20:57.060,,-2450,3850,140
16:20:57.070,,-2520,3570,0
16:20:57.080,,-2800,3220,-70
16:20:57.090,,-3010,2660,0
16:20:57.100,,-3360,2030,350
16:20:57.110,,-3500,1960,350
16:20:57.120,,-3360,1960,350
16:20:57.130,,-3150,1680,490
16:20:57.140,,-2590,1400,490
16:20:57.150,,-1960,1120,700
16:20:57.160,,-1330,840,980
16:20:57.170,,-770,490,1260
16:20:57.180,,-350,350,1610
16:20:57.332,,4760,-1750,3500
16:20:57.333,,4130,-1540,3150
16:20:57.334,,4130,-1540,3150
16:20:57.336,,4130,-1540,3150
16:20:57.337,,4130,-1540,3150
16:20:57.338,,4130,-1540,3150
16:20:57.340,,4130,-1540,3150
16:20:57.341,,4130,-1540,3150
16:20:57.342,,3220,-1120,3010
16:20:57.344,,3220,-1120,3010
16:20:57.345,,3220,-1120,3010
16:20:57.347,,3220,-1120,3010
16:20:57.348,,3220,-1120,3010
16:20:57.349,,3220,-1120,3010
16:20:57.351,,3220,-700,3150
16:20:57.352,,2170,-700,3150
16:20:57.353,,2170,-700,3150
16:20:57.360,,1190,-490,3430
16:20:57.370,,490,-490,3570
16:20:57.380,,0,-700,3640
16:20:57.390,,-70,-770,3710
16:20:57.400,,0,-700,3920
16:20:57.410,,140,-420,3990
16:20:57.420,,350,-210,3780
16:20:57.430,,700,140,3220
16:20:57.440,,1330,280,2660
16:20:57.450,,1750,210,2240
16:20:57.460,,1960,210,1750
16:20:57.470,,2170,280,1330
16:20:57.480,,2520,210,700
16:20:57.490,,2520,-140,490
16:20:57.500,,2030,70,280
16:20:57.510,,2450,420,210
16:20:57.520,,2800,630,140
16:20:57.530,,2520,560,-140
16:20:57.540,,3010,420,210
16:20:57.550,,3430,350,280
16:20:57.560,,2800,210,280
16:20:57.570,,1890,0,280
16:20:57.580,,1260,70,280
16:20:57.590,,770,350,350
16:20:57.600,,420,770,490
16:20:57.610,,280,1470,70
16:20:57.620,,630,1540,-70
16:20:57.630,,1050,1470,-70
16:20:57.640,,1260,1470,70
16:20:57.650,,1260,1400,210
16:20:57.660,,840,1680,280
16:20:57.670,,350,2100,140
16:20:57.680,,280,2380,70
16:20:57.690,,770,2380,-70
16:20:57.700,,1330,2240,-280
16:20:57.710,,1680,2170,-560
16:20:57.720,,1890,2030,-700
16:20:57.730,,1680,1820,-700
16:20:57.740,,980,1610,-980
16:20:57.750,,700,1680,-1050
16:20:57.760,,490,1750,-980
16:20:57.770,,350,1750,-1050
16:20:57.780,,280,1750,-1120
16:20:57.790,,0,1750,-1260
16:20:57.800,,-280,1750,-1400
16:20:57.810,,-490,1680,-1610
16:20:57.820,,-280,1610,-1750
16:20:57.830,,70,1540,-1750
16:20:57.840,,210,1400,-1680
16:20:57.850,,70,1470,-1820
16:20:57.860,,-70,1540,-1890
16:20:57.870,,-140,1470,-1680
16:20:57.880,,-490,1400,-1820
16:20:57.890,,-840,1400,-1960
16:20:57.900,,-910,1400,-2100
16:20:57.910,,-630,1330,-2100
16:20:57.920,,-210,1120,-2170
16:20:57.930,,-70,910,-2240
16:20:57.940,,-350,980,-2240
16:20:57.950,,-910,1120,-2100
16:20:57.960,,-1470,1190,-2100
16:20:57.970,,-1820,1050,-2240
16:20:57.980,,-1540,770,-2380
16:20:57.990,,-1050,490,-2380
16:20:58.000,,140,840,-2030
16:20:58.010,,-490,910,-1750
16:20:58.020,,-1260,1260,-1890
16:20:58.030,,-1260,1750,-1890
16:20:58.040,,-70,2030,-1610
16:20:58.050,,1190,1890,-1470
16:20:58.060,,2030,1680,-1470
16:20:58.070,,2030,1330,-1330
16:20:58.080,,1260,1190,-1190
16:20:58.090,,350,1190,-1260
16:20:58.100,,-350,1260,-1260
16:20:58.110,,-560,1470,-1260
16:20:58.120,,-420,1610,-1190
16:20:58.130,,280,1750,-840
16:20:58.140,,420,1680,-490
16:20:58.150,,630,1540,-350
16:20:58.160,,980,1330,-490
16:20:58.170,,1260,1260,-560
16:20:58.180,,1260,1610,-700
16:20:58.190,,1190,1820,-980
16:20:58.200,,980,1750,-1190
16:20:58.210,,980,1610,-1260
16:20:58.220,,770,1540,-1190
16:20:58.230,,420,1470,-1190
16:20:58.240,,-70,1330,-1190
16:20:58.250,,-560,1330,-1120
16:20:58.260,,-350,2310,-910
16:20:58.270,,210,2310,-700
16:20:58.280,,490,2240,-630
16:20:58.290,,1050,2590,-700
16:20:58.300,,1400,2800,-420
16:20:58.310,,1260,2870,-70
16:20:58.320,,560,3080,0
16:20:58.330,,-70,3360,-140
16:20:58.340,,-140,3640,-280
16:20:58.350,,280,3710,-560
16:20:58.360,,700,3570,-840
16:20:58.370,,980,3360,-910
16:20:58.380,,980,3360,-630
16:20:58.390,,560,3430,-420
16:20:58.400,,350,3570,-350
16:20:58.410,,140,3570,-420
16:20:58.420,,0,3500,-560
16:20:58.430,,-140,3220,-700
16:20:58.440,,-420,3080,-840
16:20:58.450,,-770,3010,-980
16:20:58.460,,-840,3080,-1050
16:20:58.470,,-490,3430,-980
16:20:58.480,,140,3780,-910
16:20:58.490,,910,4200,-910
16:20:58.500,,1680,4410,-1050
16:20:58.510,,2310,4060,-1260
16:20:58.520,,2170,3850,-1400
16:20:58.530,,1680,3640,-1610
16:20:58.540,,1330,3430,-1680
16:20:58.550,,1190,3080,-1750
16:20:58.560,,910,2800,-1750
16:20:58.570,,630,2800,-1680
16:20:58.580,,350,2800,-1540
16:20:58.590,,210,2660,-1400
16:20:58.600,,140,2590,-1260
16:20:58.610,,140,2660,-980
16:20:58.767,,4830,1890,210
16:20:58.769,,4830,1890,210
16:20:58.770,,3920,1330,-140
16:20:58.771,,3920,1330,-140
16:20:58.773,,3920,1330,-140
16:20:58.774,,3920,1330,-140
16:20:58.775,,3920,1330,-140
16:20:58.777,,3920,1330,-140
16:20:58.778,,3920,1330,-140
16:20:58.780,,3220,1260,-560
16:20:58.781,,3220,1260,-560
16:20:58.782,,3220,1260,-560
16:20:58.784,,3220,1260,-560
16:20:58.785,,3220,1260,-560
16:20:58.786,,3220,1260,-560
16:20:58.788,,3220,1260,-560
16:20:58.789,,3710,1330,-700
16:20:58.791,,3710,1330,-700
16:20:58.800,,5180,1330,-700
16:20:58.810,,6650,980,-770
16:20:58.820,,7280,770,-630
16:20:58.830,,7000,770,-280
16:20:58.840,,6370,700,0
16:20:58.850,,5390,630,280
16:20:58.860,,4200,560,420
16:20:58.870,,3220,350,420
16:20:58.880,,2870,0,490
16:20:58.890,,2590,-560,700
16:20:58.900,,1540,-1680,420
16:20:58.910,,1120,-1820,-140
16:20:58.920,,1190,-1890,-350
16:20:58.930,,1470,-2100,-770
16:20:58.940,,1750,-2380,-1190
16:20:58.950,,2030,-2730,-1400
16:20:58.960,,1960,-3150,-1330
16:20:58.970,,1610,-3220,-1190
16:20:58.980,,1120,-3150,-1120
16:20:58.990,,840,-2870,-1120
16:20:59.000,,700,-2730,-1050
16:20:59.010,,770,-2730,-840
16:20:59.020,,910,-3150,-770
16:20:59.030,,2800,-3850,-770
16:20:59.040,,3220,-4480,-840
16:20:59.050,,3220,-4340,-1050
16:20:59.060,,3010,-3850,-980
16:20:59.070,,2730,-3710,-700
16:20:59.080,,2380,-3640,-490
16:20:59.090,,2310,-3430,-70
16:20:59.100,,2520,-3220,420
16:20:59.110,,2730,-3010,910
16:20:59.120,,2590,-2870,1190
16:20:59.130,,2240,-2660,1260
16:20:59.140,,1890,-2310,1120
16:20:59.150,,1960,-1820,910
16:20:59.160,,2660,-1890,630
16:20:59.170,,2940,-2170,490
16:20:59.180,,2800,-2590,210
16:20:59.190,,2450,-2730,-210
16:20:59.200,,1890,-2520,-490
16:20:59.210,,1470,-2450,-420
16:20:59.220,,910,-2450,-140
16:20:59.230,,280,-2590,490
16:20:59.240,,-560,-2660,1260
16:20:59.250,,-1330,-2660,1960
16:20:59.260,,-1680,-2380,2520
16:20:59.270,,-1330,-2170,2730
16:20:59.280,,560,-2170,2800
16:20:59.290,,1470,-2170,2730
16:20:59.300,,2520,-2100,2380
16:20:59.310,,3780,-2170,2100
16:20:59.320,,5040,-2240,2100
16:20:59.330,,6090,-2380,2380
16:20:59.340,,6930,-2590,2800
16:20:59.350,,7630,-3150,3220
16:20:59.360,,8190,-3780,3710
16:20:59.370,,8610,-4130,4130
16:20:59.380,,8820,-4340,4060
16:20:59.390,,9030,-4690,3570
16:20:59.400,,8960,-5110,3080
16:20:59.410,,7980,-5250,2030
16:20:59.420,,6790,-5390,1750
16:20:59.430,,5250,-5320,1540
16:20:59.440,,3640,-4970,1330
16:20:59.450,,2520,-4690,1260
16:20:59.460,,1750,-4760,1260
16:20:59.470,,1050,-4970,1190
16:20:59.480,,-280,-5110,1050
16:20:59.490,,-2170,-5390,1400
16:20:59.500,,-4060,-5530,2100
16:20:59.510,,-6090,-5180,2170
16:20:59.520,,-7350,-4620,1820
16:20:59.530,,-6860,-3920,1260
16:20:59.540,,-3150,-3570,-420
16:20:59.550,,-2100,-3570,-1330
16:20:59.560,,-1610,-2940,-1750
16:20:59.570,,-840,-1960,-1540
16:20:59.580,,490,-1120,-1050
16:20:59.590,,2030,-770,-1050
16:20:59.600,,3500,-840,-1400
16:20:59.610,,4970,-1050,-2240
16:20:59.620,,6370,-980,-3430
16:20:59.630,,7140,-630,-4760
16:20:59.640,,7000,-210,-5810
16:20:59.650,,6090,0,-6440
16:20:59.660,,4270,-70,-6650
16:20:59.670,,-2030,-140,-6160
16:20:59.680,,-6160,-210,-5390
16:20:59.690,,-10570,-70,-4550
16:20:59.700,,-14700,630,-3780
16:20:59.710,,-17710,1190,-2520
16:20:59.720,,-19250,1750,-1610
16:20:59.730,,-20440,3150,-840
16:20:59.740,,-20440,4550,210
16:20:59.750,,-19390,6020,1400
16:20:59.760,,-17500,7280,2870
16:20:59.770,,-15540,8610,4270
16:20:59.780,,-12670,9940,4830
16:20:59.790,,-8750,9870,4550
16:20:59.800,,-1400,8890,4060
16:20:59.810,,1820,7910,3150
16:20:59.820,,4970,6370,1890
16:20:59.830,,7630,4620,420
16:20:59.840,,8890,3220,-840
16:20:59.850,,8470,2100,-1610
16:20:59.860,,6720,490,-2030
16:20:59.870,,3850,-1260,-1960
16:20:59.880,,280,-2170,-980
16:20:59.890,,-3920,-2590,490
16:20:59.900,,-8330,-2940,2380
16:20:59.910,,-12110,-3080,4760
16:20:59.920,,-15330,-2730,9030
16:20:59.930,,-14210,-2170,10010
16:20:59.940,,-11480,-1820,10430
16:20:59.950,,-8190,-1470,10360
16:20:59.960,,-5040,-1540,9730
16:20:59.970,,-2240,-1540,8680
16:20:59.980,,140,-1750,7630
16:20:59.990,,2310,-2240,6720
16:21:00.141,,9030,-8330,2520
16:21:00.143,,9030,-8540,1960
16:21:00.144,,10010,-8540,1960
16:21:00.145,,10010,-8540,1960
16:21:00.147,,10010,-8540,1960
16:21:00.148,,10010,-8540,1960
16:21:00.149,,10010,-8540,1960
16:21:00.151,,10010,-8540,1960
16:21:00.152,,10500,-8820,1540
16:21:00.154,,10500,-8820,1540
16:21:00.155,,10500,-8820,1540
16:21:00.156,,10500,-8820,1540
16:21:00.158,,10500,-8820,1540
16:21:00.159,,10500,-8820,1540
16:21:00.160,,10500,-8820,1540
16:21:00.162,,10640,-9030,1330
16:21:00.163,,10640,-9030,1330
16:21:00.170,,10640,-9030,1330
16:21:00.180,,10430,-9590,840
16:21:00.190,,10010,-9730,490
16:21:00.200,,9800,-9660,70
16:21:00.210,,9940,-9660,-70
16:21:00.220,,9800,-9660,70
16:21:00.230,,9170,-9310,420
16:21:00.240,,8260,-8820,840
16:21:00.250,,6860,-8190,1680
16:21:00.260,,5250,-7630,2660
16:21:00.270,,3570,-6930,3430
16:21:00.280,,2170,-5950,4340
16:21:00.290,,1470,-5040,5180
16:21:00.300,,1680,-4200,5670
16:21:00.310,,4060,-3360,5880
16:21:00.320,,4620,-3780,5600
16:21:00.330,,4410,-3710,4900
16:21:00.340,,4200,-2870,4060
16:21:00.350,,4900,-1820,3220
16:21:00.360,,6510,-1330,2660
16:21:00.370,,8120,-1190,2520
16:21:00.380,,9100,-840,2800
16:21:00.390,,9450,-700,3430
16:21:00.400,,9030,-1260,3920
16:21:00.410,,8260,-2380,4270
16:21:00.420,,6860,-3640,4130
16:21:00.430,,5180,-5110,3430
16:21:00.440,,-1330,-7210,2520
16:21:00.450,,-5530,-7630,1960
16:21:00.460,,-9240,-8330,2100
16:21:00.470,,-12810,-9380,2380
16:21:00.480,,-16450,-10080,2380
16:21:00.490,,-19530,-10500,2170
16:21:00.500,,-21980,-11200,2170
16:21:00.510,,-24290,-12180,2100
16:21:00.520,,-26530,-12950,1820
16:21:00.530,,-28070,-12740,1400
16:21:00.540,,-28560,-11410,980
16:21:00.550,,-27860,-9380,840
16:21:00.560,,-25690,-4550,2240
16:21:00.570,,-18830,-3010,4130
16:21:00.580,,-15750,-1750,6650
16:21:00.590,,-11970,-980,8260
16:21:00.600,,-7560,-490,9030
16:21:00.610,,-3290,630,9660
16:21:00.620,,140,2100,9870
16:21:00.630,,3080,3220,9170
16:21:00.640,,6090,3710,7630
16:21:00.650,,9940,3570,6020
16:21:00.660,,13720,3080,4340
16:21:00.670,,16170,2520,2730
16:21:00.680,,17010,1890,1680
16:21:00.690,,13930,350,1330
16:21:00.700,,10640,-560,1680
16:21:00.710,,6720,-1400,2240
16:21:00.720,,2170,-1890,3010
16:21:00.730,,-2940,-2030,3850
16:21:00.740,,-7840,-1890,5040
16:21:00.750,,-11900,-1400,6230
16:21:00.760,,-14980,-910,6930
16:21:00.770,,-16240,-980,7140
16:21:00.780,,-15820,-1470,7140
16:21:00.790,,-13650,-2380,6440
16:21:00.800,,-10500,-3640,5320
16:21:00.810,,-6650,-4620,4550
16:21:00.820,,560,-4970,3990
16:21:00.830,,3430,-5110,3990
16:21:00.840,,5600,-5320,4480
16:21:00.850,,7000,-5880,5110
16:21:00.860,,7770,-6580,5950
16:21:00.870,,8050,-7490,6930
16:21:00.880,,7840,-8400,7910
16:21:00.890,,7280,-9240,8960
16:21:00.900,,6720,-10080,10220
16:21:00.910,,6440,-10780,11410
16:21:00.920,,6160,-11550,12320
16:21:00.930,,6090,-12180,12880
16:21:00.940,,6090,-12670,13160
16:21:00.950,,6160,-14280,13860
16:21:00.960,,5670,-15470,14420
16:21:00.970,,4830,-16660,15190
16:21:00.980,,3570,-17780,15960
16:21:00.990,,1960,-18620,16380
16:21:01.000,,280,-19390,16590
16:21:01.010,,-840,-20090,16940
16:21:01.020,,-1330,-21070,17220
16:21:01.030,,-840,-22400,17570
16:21:01.040,,-70,-23590,18340
16:21:01.050,,210,-24360,19670
16:21:01.060,,350,-24850,21560
16:21:01.070,,700,-25130,25130
16:21:01.080,,2940,-25620,26390
16:21:01.090,,4550,-26110,27580
16:21:01.100,,5460,-26880,28980
16:21:01.110,,5390,-27370,30030
16:21:01.120,,5810,-27300,30660
16:21:01.130,,7210,-27860,31290
16:21:01.140,,7140,-29120,30870
16:21:01.150,,5320,-30310,29750
16:21:01.160,,2660,-30730,28840
16:21:01.170,,-840,-30030,27300
16:21:01.180,,-5180,-29190,25410
16:21:01.190,,-10780,-29120,23380
16:21:01.200,,-18060,-30940,19670
16:21:01.210,,-33810,-30870,17290
16:21:01.220,,-38920,-30170,14840
16:21:01.230,,-42490,-29190,12600
16:21:01.240,,-44730,-27860,10360
16:21:01.250,,-42000,-27930,7980
16:21:01.260,,-41930,-25690,10500
16:21:01.270,,-46200,-19810,8750
16:21:01.280,,-41650,-14840,4760
16:21:01.290,,-16380,-18970,-350
16:21:01.300,,4130,-19320,-1750
16:21:01.453,,7700,35280,-15890
16:21:01.454,,7700,35280,-15890
16:21:01.456,,7700,35280,-15890
16:21:01.457,,7700,35280,-15890
16:21:01.458,,7700,35280,-15890
16:21:01.460,,10710,36260,-17360
16:21:01.461,,10710,36260,-17360
16:21:01.463,,10710,36260,-17360
16:21:01.464,,10710,36260,-17360
16:21:01.465,,10710,36260,-17360
16:21:01.467,,10710,36260,-17360
16:21:01.468,,10710,36260,-17360
16:21:01.469,,12880,37450,-18970
16:21:01.471,,12880,37450,-18970
16:21:01.472,,12880,37450,-18970
16:21:01.474,,12880,37450,-18970
16:21:01.475,,12880,37450,-18970
16:21:01.480,,13510,38780,-20650
16:21:01.490,,14000,39480,-23170
16:21:01.500,,14070,39900,-25550
16:21:01.510,,13090,40460,-27370
16:21:01.520,,10990,41370,-28560
16:21:01.530,,8120,43050,-28770
16:21:01.540,,4970,44660,-27650
16:21:01.550,,840,45850,-25410
16:21:01.560,,-4340,46550,-21700
16:21:01.570,,-9100,46830,-16660
16:21:01.580,,-13020,47390,-10850
16:21:01.590,,-10640,47670,-280
16:21:01.600,,-6580,46270,3290
16:21:01.610,,-1540,44870,5040
16:21:01.620,,3990,43540,5110
16:21:01.630,,10640,41440,4410
16:21:01.640,,19180,39620,3150
16:21:01.650,,28700,37170,1260
16:21:01.660,,36750,35000,-2030
16:21:01.670,,43050,32620,-5530
16:21:01.680,,48160,29470,-8820
16:21:01.690,,50820,25970,-12110
16:21:01.700,,50400,22050,-14910
16:21:01.710,,46550,18130,-16730
16:21:01.720,,30450,11200,-16800
16:21:01.730,,18830,8400,-14840
16:21:01.740,,5670,5950,-13020
16:21:01.750,,-6790,4130,-11410
16:21:01.760,,-15890,3220,-9310
16:21:01.770,,-20370,1890,-6650
16:21:01.780,,-22400,-420,-4340
16:21:01.790,,-23870,-3010,-2800
16:21:01.800,,-26040,-4480,-980
16:21:01.810,,-28280,-4900,980
16:21:01.820,,-29680,-4970,2030
16:21:01.830,,-29400,-4410,2520
16:21:01.840,,-27230,-3640,2730
16:21:01.850,,-19600,-5110,2310
16:21:01.860,,-14910,-6720,1400
16:21:01.870,,-9870,-8190,560
16:21:01.880,,-4060,-9940,210
16:21:01.890,,1750,-12250,490
16:21:01.900,,6300,-14910,840
16:21:01.910,,8960,-17080,1120
16:21:01.920,,10080,-18550,1680
16:21:01.930,,11130,-19740,2380
16:21:01.940,,11900,-21140,3500
16:21:01.950,,11970,-22260,5040
16:21:01.960,,11900,-23450,6580
16:21:01.970,,11690,-26880,7910
16:21:01.980,,11620,-29470,6790
16:21:01.990,,12040,-31990,4900
16:21:02.000,,13160,-34300,2590
16:21:02.010,,14840,-36400,490
16:21:02.020,,15680,-37730,-840
16:21:02.030,,14560,-37730,-1260
16:21:02.040,,11480,-36400,-770
16:21:02.050,,7490,-34370,980
16:21:02.060,,2590,-32970,3990
16:21:02.070,,-3080,-32410,7420
16:21:02.080,,-9590,-32060,10780
16:21:02.090,,-13930,-32060,12040
16:21:02.100,,-7910,-35980,9660
16:21:02.110,,-1400,-36540,7910
16:21:02.120,,6510,-37310,4550
16:21:02.130,,12250,-37240,2100
16:21:02.140,,13370,-35420,1890
16:21:02.150,,10430,-31920,3150
16:21:02.160,,6930,-29120,3850
16:21:02.170,,3920,-27440,4200
16:21:02.180,,-1330,-23730,7490
16:21:02.190,,-7210,-20440,11410
16:21:02.200,,-12460,-18830,13720
16:21:02.210,,-15750,-17990,14700
16:21:02.220,,-16940,-17780,15540
16:21:02.230,,-19670,-17360,13440
16:21:02.240,,-18830,-15190,10780
16:21:02.250,,-13720,-11970,7280
16:21:02.260,,-5390,-8890,3080
16:21:02.270,,4340,-6160,-1120
16:21:02.280,,13860,-4130,-4550
16:21:02.290,,20090,-2940,-7420
16:21:02.300,,21560,-1960,-8820
16:21:02.310,,19180,-490,-8120
16:21:02.320,,14210,1680,-6510
16:21:02.330,,8190,3920,-4690
16:21:02.340,,2100,5810,-2800
16:21:02.350,,-3710,7630,-420
16:21:02.360,,-10220,11480,1820
16:21:02.370,,-8960,12320,2170
16:21:02.380,,-5390,12320,1890
16:21:02.390,,-2450,12530,560
16:21:02.400,,-1750,13510,-1120
16:21:02.410,,-2380,14910,-3010
16:21:02.420,,-2730,15820,-5530
16:21:02.430,,-1190,16660,-7910
16:21:02.440,,2030,17640,-9380
16:21:02.450,,5040,18900,-10010
16:21:02.460,,6370,20160,-10150
16:21:02.470,,6300,20720,-10220
16:21:02.480,,5320,21280,-9310
16:21:02.490,,1190,23590,-6510
16:21:02.500,,-770,24920,-3780
16:21:02.510,,-1400,25200,-1190
16:21:02.520,,-210,23800,210
16:21:02.530,,2870,21420,700
16:21:02.540,,6020,18900,-280
16:21:02.550,,8820,17150,-2030
16:21:02.560,,9520,16450,-4130
16:21:02.570,,9100,15680,-6370
16:21:02.580,,7490,14840,-8260
16:21:02.590,,5250,14770,-9520
16:21:02.742,,13790,2240,-1820
16:21:02.743,,13790,2240,-1820
16:21:02.745,,13790,2240,-1820
16:21:02.746,,13790,2240,-1820
16:21:02.747,,13790,2240,-1820
16:21:02.749,,13790,2240,-1820
16:21:02.750,,13020,770,-2520
16:21:02.751,,13020,770,-2520
16:21:02.753,,13020,770,-2520
16:21:02.754,,13020,770,-2520
16:21:02.756,,13020,770,-2520
16:21:02.757,,13020,770,-2520
16:21:02.758,,13020,-630,-2870
16:21:02.760,,11340,-630,-2870
16:21:02.761,,11340,-630,-2870
16:21:02.762,,11340,-630,-2870
16:21:02.764,,11340,-630,-2870
16:21:02.770,,8890,-1890,-2730
16:21:02.780,,5530,-2800,-2240
16:21:02.790,,1890,-3710,-1400
16:21:02.800,,-1260,-4760,-630
16:21:02.810,,-3430,-6090,140
16:21:02.820,,-4340,-7630,840
16:21:02.830,,-4830,-8680,1260
16:21:02.840,,-4830,-9590,770
16:21:02.850,,-3780,-10710,-140
16:21:02.860,,-1960,-11900,-1120
16:21:02.870,,3430,-15120,-3780
16:21:02.880,,6160,-17920,-5600
16:21:02.890,,8540,-21560,-7840
16:21:02.900,,10220,-25130,-10290
16:21:02.910,,10570,-27860,-13020
16:21:02.920,,9520,-29680,-15610
16:21:02.930,,6930,-30870,-17640
16:21:02.940,,2240,-31710,-18620
16:21:02.950,,-5110,-31920,-18340
16:21:02.960,,-14420,-31360,-16660
16:21:02.970,,-25760,-30240,-13580
16:21:02.980,,-36260,-28630,-8260
16:21:02.990,,-42350,-28210,-1330
16:21:03.000,,-47180,-25690,9030
16:21:03.010,,-44240,-19950,11410
16:21:03.020,,-33810,-13440,12250
16:21:03.030,,-20160,-7840,11760
16:21:03.040,,-4620,-2380,11270
16:21:03.050,,12390,1540,10010
16:21:03.060,,25830,3290,9660
16:21:03.070,,32340,3990,10290
16:21:03.080,,33320,4900,11410
16:21:03.090,,32270,5110,11620
16:21:03.100,,30380,4620,11550
16:21:03.110,,28070,4340,11200
16:21:03.120,,26810,4200,10640
16:21:03.130,,28490,1400,7980
16:21:03.140,,29540,-210,5880
16:21:03.150,,30030,-1960,3570
16:21:03.160,,29120,-3430,2520
16:21:03.170,,26250,-4830,1820
16:21:03.180,,23030,-7350,1050
16:21:03.190,,18130,-9520,490
16:21:03.200,,11200,-10500,-210
16:21:03.210,,5180,-11340,-1540
16:21:03.220,,1120,-12600,-2870
16:21:03.230,,-1750,-13580,-3850
16:21:03.240,,-4060,-13930,-5040
16:21:03.250,,-5880,-13790,-7560
16:21:03.260,,-10290,-12670,-7770
16:21:03.270,,-13510,-11900,-7420
16:21:03.280,,-17010,-11130,-6580
16:21:03.290,,-19950,-10430,-5320
16:21:03.300,,-21700,-10080,-3850
16:21:03.310,,-21630,-9800,-2240
16:21:03.320,,-20230,-9660,-980
16:21:03.330,,-17640,-9450,-140
16:21:03.340,,-14000,-9030,490
16:21:03.350,,-10290,-7490,630
16:21:03.360,,-6020,-4830,490
16:21:03.370,,-1540,-1750,1400
16:21:03.380,,2590,2100,4340
16:21:03.390,,7490,3150,6720
16:21:03.400,,9310,3360,8750
16:21:03.410,,10850,3010,9800
16:21:03.420,,12320,2520,10080
16:21:03.430,,13580,2240,10290
16:21:03.440,,14770,2100,10080
16:21:03.450,,16100,1540,8890
16:21:03.460,,17710,770,7210
16:21:03.470,,18970,70,5250
16:21:03.480,,19460,-770,2940
16:21:03.490,,19320,-1890,630
16:21:03.500,,18900,-3290,-1120
16:21:03.510,,17850,-5950,-2520
16:21:03.520,,13300,-6650,-2100
16:21:03.530,,8820,-7350,-1120
16:21:03.540,,2380,-7770,-280
16:21:03.550,,-3570,-7980,840
16:21:03.560,,-7840,-8400,1960
16:21:03.570,,-10500,-9100,2660
16:21:03.580,,-11970,-10290,2660
16:21:03.590,,-12600,-11830,2380
16:21:03.600,,-13160,-13090,2170
16:21:03.610,,-13580,-14070,1680
16:21:03.620,,-14210,-14490,1260
16:21:03.630,,-14280,-14350,770
16:21:03.640,,-11410,-13790,700
16:21:03.650,,-9380,-12740,2030
16:21:03.660,,-7840,-11130,3640
16:21:03.670,,-6510,-9660,5040
16:21:03.680,,-4690,-8890,6440
16:21:03.690,,-2940,-8050,7280
16:21:03.700,,-630,-7210,7700
16:21:03.710,,1400,-6650,7490
16:21:03.720,,2940,-6370,6790
16:21:03.730,,4830,-6580,5880
16:21:03.740,,6440,-7210,4760
16:21:03.750,,7420,-7700,3710
16:21:03.760,,7910,-7630,3080
16:21:03.770,,8960,-7700,1610
16:21:03.780,,9030,-7700,1190
16:21:03.790,,8260,-7490,1260
16:21:03.800,,6790,-7000,1330
16:21:03.810,,5110,-6440,1400
16:21:03.820,,3500,-5810,1540
16:21:03.830,,1890,-5460,1610
16:21:03.840,,140,-5390,1540
16:21:03.850,,-1470,-5250,1820
16:21:03.860,,-3290,-5040,2520
16:21:03.870,,-5180,-5460,2310
16:21:03.880,,-6790,-5880,2870
16:21:03.890,,-7280,-5600,3220
16:21:03.900,,-3360,-6860,980
16:21:04.044,,6440,0,-4900
16:21:04.046,,6440,0,-4900
16:21:04.047,,6440,0,-4900
16:21:04.048,,8120,210,-4760
16:21:04.050,,8120,210,-4760
16:21:04.051,,8120,210,-4760
16:21:04.053,,8120,210,-4760
16:21:04.054,,8120,210,-4760
16:21:04.055,,8120,210,-4760
16:21:04.057,,8120,210,-4760
16:21:04.058,,9520,350,-4620
16:21:04.059,,9520,350,-4620
16:21:04.061,,9520,350,-4620
16:21:04.062,,9520,350,-4620
16:21:04.063,,9520,350,-4620
16:21:04.065,,9520,350,-4620
16:21:04.070,,10500,350,-4620
16:21:04.080,,11200,700,-5180
16:21:04.090,,11340,1470,-5880
16:21:04.100,,10850,2870,-6580
16:21:04.110,,10220,4340,-7070
16:21:04.120,,10360,4970,-7140
16:21:04.130,,11060,4060,-6440
16:21:04.140,,10710,2520,-5390
16:21:04.150,,8400,3360,-3080
16:21:04.160,,1190,5460,-1680
16:21:04.170,,-1330,7350,280
16:21:04.180,,-2660,8960,2240
16:21:04.190,,-2660,10220,3710
16:21:04.200,,-1330,11060,4620
16:21:04.210,,1050,11410,5110
16:21:04.220,,2590,11550,5040
16:21:04.230,,3710,11970,4620
16:21:04.240,,4690,12460,4130
16:21:04.250,,5250,12880,3500
16:21:04.260,,5950,13510,2870
16:21:04.270,,6790,14490,2240
16:21:04.280,,8610,15470,770
16:21:04.290,,10150,14700,770
16:21:04.300,,11410,14000,630
16:21:04.310,,12390,12880,630
16:21:04.320,,13020,11200,770
16:21:04.330,,12950,9520,630
16:21:04.340,,11760,8050,0
16:21:04.350,,9170,6440,-910
16:21:04.360,,5600,4690,-2450
16:21:04.370,,1260,3220,-4130
16:21:04.380,,-3290,1680,-5950
16:21:04.390,,-7910,-70,-7420
16:21:04.400,,-12530,-2100,-8960
16:21:04.410,,-20860,-5810,-11340
16:21:04.420,,-25060,-6650,-11410
16:21:04.430,,-29890,-5670,-10290
16:21:04.440,,-34930,-2730,-7560
16:21:04.450,,-38220,0,-3500
16:21:04.460,,-38710,1400,1610
16:21:04.470,,-37030,2940,6860
16:21:04.480,,-33040,4690,11480
16:21:04.490,,-27020,6020,14490
16:21:04.500,,-19880,7700,15260
16:21:04.510,,-12180,10080,13650
16:21:04.520,,-2800,11900,10290
16:21:04.530,,8260,11900,6370
16:21:04.540,,24290,9450,-1330
16:21:04.550,,27790,8260,-5110
16:21:04.560,,29050,7070,-8400
16:21:04.570,,29050,5740,-11130
16:21:04.580,,28210,4620,-12740
16:21:04.590,,25970,3570,-12460
16:21:04.600,,20370,2170,-10570
16:21:04.610,,11480,1050,-7420
16:21:04.620,,1050,560,-3220
16:21:04.630,,-8330,910,1050
16:21:04.640,,-14490,1330,4480
16:21:04.650,,-17500,1470,6160
16:21:04.660,,-18830,1750,6090
16:21:04.670,,-16100,1890,4200
16:21:04.680,,-13860,1960,3080
16:21:04.690,,-10360,3010,1190
16:21:04.700,,-5530,3710,-1610
16:21:04.710,,350,4200,-3850
16:21:04.720,,6930,3640,-6510
16:21:04.730,,11130,2520,-9030
16:21:04.740,,12180,2240,-9450
16:21:04.750,,11550,2240,-8610
16:21:04.760,,9310,2170,-7280
16:21:04.770,,5810,2380,-5530
16:21:04.780,,2800,2450,-3570
16:21:04.790,,910,2100,0
16:21:04.800,,-1610,1890,1470
16:21:04.810,,-4200,1610,2590
16:21:04.820,,-6930,2100,2240
16:21:04.830,,-7000,2660,1750
16:21:04.840,,-5670,3080,630
16:21:04.850,,-2660,3710,-770
16:21:04.860,,1120,3920,-1890
16:21:04.870,,3220,3640,-3010
16:21:04.880,,4410,3920,-3850
16:21:04.890,,5390,4550,-4130
16:21:04.900,,6090,4410,-4200
16:21:04.910,,5810,4270,-4480
16:21:04.920,,5460,4760,-4900
16:21:04.930,,7280,4480,-4480
16:21:04.940,,8190,4130,-4130
16:21:04.950,,7910,4340,-3430
16:21:04.960,,7000,4410,-3010
16:21:04.970,,7000,3640,-2800
16:21:04.980,,8120,2520,-2450
16:21:04.990,,8120,2100,-2100
16:21:05.000,,7140,2660,-1750
16:21:05.010,,6230,2380,-1750
16:21:05.020,,5040,1190,-1330
16:21:05.030,,3780,980,-770
16:21:05.040,,2730,840,-630
16:21:05.050,,1190,840,-420
16:21:05.060,,1400,770,-560
16:21:05.070,,2100,280,-770
16:21:05.080,,2660,-280,-1190
16:21:05.090,,3290,-630,-1680
16:21:05.100,,3920,-980,-1890
16:21:05.110,,4480,-1120,-2030
16:21:05.120,,5040,-1050,-1890
16:21:05.130,,5180,-770,-1750
16:21:05.140,,4410,-70,-1330
16:21:05.150,,3920,0,-840
16:21:05.160,,4620,-560,-630
16:21:05.170,,5600,-980,-490
16:21:05.179,,6930,-1610,-420
16:21:05.190,,7000,-1470,-700
16:21:05.200,,6930,-1120,-700
16:21:05.209,,6440,-980,-560
16:21:05.220,,5530,-840,-490
16:21:05.230,,4550,-560,-630
16:21:05.239,,3920,-490,-630
16:21:05.250,,3920,-560,-420
16:21:05.260,,3990,-700,-70
16:21:05.411,,1960,-1540,-210
16:21:05.413,,1960,-1540,-210
16:21:05.414,,1960,-1540,-210
16:21:05.415,,1960,-1540,-210
16:21:05.417,,1960,-1540,-210
16:21:05.418,,1960,-1540,-210
16:21:05.420,,1960,-1540,-210
16:21:05.421,,2800,-1190,280
16:21:05.422,,2800,-1190,280
16:21:05.424,,2800,-1190,280
16:21:05.425,,2800,-1190,280
16:21:05.426,,2800,-1190,280
16:21:05.428,,2800,-1190,280
16:21:05.429,,2800,-1190,280
16:21:05.431,,2940,-490,210
16:21:05.432,,2940,-490,210
16:21:05.433,,2940,-490,210
16:21:05.439,,3080,0,-350
16:21:05.449,,3010,140,-910
16:21:05.460,,2870,0,-1050
16:21:05.469,,2940,-630,-1260
16:21:05.479,,2240,-910,-1540
16:21:05.489,,1330,-840,-1540
16:21:05.499,,280,-770,-1540
16:21:05.509,,-770,-560,-1750
16:21:05.519,,-1610,140,-2380
16:21:05.529,,-2310,700,-2660
16:21:05.539,,-3290,1120,-2940
16:21:05.549,,-4900,1820,-3290
16:21:05.559,,-6650,3010,-3780
16:21:05.569,,-7840,6440,-3570
16:21:05.579,,-7420,8470,-3150
16:21:05.589,,-7070,10290,-2870
16:21:05.599,,-6650,12390,-2660
16:21:05.609,,-5600,14630,-3080
16:21:05.619,,-4480,16450,-4130
16:21:05.629,,-3430,18130,-5670
16:21:05.639,,-2030,19880,-7070
16:21:05.649,,-980,21000,-7770
16:21:05.659,,-490,21910,-8260
16:21:05.669,,-770,23030,-8400
16:21:05.679,,-770,24570,-7840
16:21:05.689,,-560,28770,-5740
16:21:05.699,,210,31430,-4410
16:21:05.709,,1470,34160,-3360
16:21:05.719,,4690,35420,-2380
16:21:05.729,,8400,35000,-1960
16:21:05.739,,9730,33320,-1750
16:21:05.749,,8610,31220,-1820
16:21:05.759,,6510,29050,-2450
16:21:05.769,,3360,26600,-3710
16:21:05.779,,-700,24500,-5180
16:21:05.789,,-5390,23030,-6300
16:21:05.799,,-9450,21910,-6440
16:21:05.809,,-12110,21000,-5530
16:21:05.819,,-12950,18830,-1960
16:21:05.829,,-11970,17290,280
16:21:05.839,,-10850,15750,2590
16:21:05.849,,-9520,14000,4480
16:21:05.859,,-7350,12320,5320
16:21:05.869,,-3640,10500,5250
16:21:05.879,,1330,8960,4550
16:21:05.889,,7140,7630,3570
16:21:05.899,,12810,6370,2800
16:21:05.909,,17640,4970,2590
16:21:05.919,,21420,3010,2660
16:21:05.929,,24220,490,3640
16:21:05.939,,24850,-2380,4480
16:21:05.949,,21350,-8190,5040
16:21:05.959,,18830,-10220,4970
16:21:05.969,,16030,-12110,4550
16:21:05.979,,13160,-13510,3430
16:21:05.989,,10710,-14420,1960
16:21:05.999,,8470,-15400,1050
16:21:06.009,,6440,-16450,980
16:21:06.019,,5040,-17710,1330
16:21:06.029,,2730,-18480,2520
16:21:06.039,,-980,-18270,3640
16:21:06.049,,-5040,-17220,4410
16:21:06.059,,-8400,-16170,4200
16:21:06.069,,-10570,-15610,2520
16:21:06.079,,-10500,-15260,-3780
16:21:06.089,,-9520,-14980,-7420
16:21:06.099,,-8820,-14070,-10570
16:21:06.109,,-8960,-12320,-12530
16:21:06.119,,-9800,-10080,-13580
16:21:06.129,,-10360,-7350,-13440
16:21:06.139,,-11270,-3500,-10850
16:21:06.149,,-15610,1610,-7910
16:21:06.159,,-18690,5880,-6300
16:21:06.169,,-15050,8120,-4270
16:21:06.179,,-11480,10640,-2240
16:21:06.189,,-13300,15890,-840
16:21:06.199,,-18060,21630,70
16:21:06.209,,-26460,28280,1190
16:21:06.219,,-28350,29260,3150
16:21:06.229,,-29820,29680,4550
16:21:06.239,,-29960,29750,4900
16:21:06.249,,-28840,29610,4340
16:21:06.259,,-26320,29890,3360
16:21:06.269,,-22750,30520,2170
16:21:06.279,,-18690,31640,840
16:21:06.289,,-14840,32900,-910
16:21:06.299,,-11550,33530,-2800
16:21:06.309,,-8960,33040,-4900
16:21:06.319,,-7490,31150,-7140
16:21:06.329,,-6160,25480,-12740
16:21:06.339,,-910,23380,-16240
16:21:06.349,,3850,23240,-20020
16:21:06.359,,9800,24570,-23310
16:21:06.369,,15820,26390,-25130
16:21:06.379,,21140,27860,-25550
16:21:06.389,,27300,29400,-25200
16:21:06.399,,34790,29540,-23940
16:21:06.409,,41580,27020,-22400
16:21:06.419,,43890,24080,-20370
16:21:06.429,,40390,22190,-18060
16:21:06.439,,33320,20370,-15680
16:21:06.449,,23590,20090,-12180
16:21:06.459,,13930,14140,-5530
16:21:06.469,,8120,11200,-700
16:21:06.479,,1470,8470,3570
16:21:06.489,,-4270,4200,6650
16:21:06.499,,-8260,840,9170
16:21:06.509,,-11690,-560,11620
16:21:06.519,,-16310,-2240,14070
16:21:06.529,,-21980,-4900,16800
16:21:06.539,,-26950,-7700,19950
16:21:06.549,,-31220,-10150,23660
16:21:06.559,,-36190,-11970,27860
16:21:06.569,,-41090,-12810,31150
16:21:06.726,,35420,-43050,-10430
16:21:06.728,,35420,-43050,-10430
16:21:06.729,,34440,-42770,-13300
16:21:06.730,,34440,-42770,-13300
16:21:06.732,,34440,-42770,-13300
16:21:06.733,,34440,-42770,-13300
16:21:06.734,,34440,-42770,-13300
16:21:06.736,,34440,-42770,-13300
16:21:06.737,,34440,-42770,-13300
16:21:06.738,,32340,-40810,-15680
16:21:06.740,,32340,-40810,-15680
16:21:06.741,,32340,-40810,-15680
16:21:06.743,,32340,-40810,-15680
16:21:06.744,,32340,-40810,-15680
16:21:06.745,,32340,-40810,-15680
16:21:06.747,,32340,-40810,-16520
16:21:06.748,,30310,-38010,-16520
16:21:06.749,,30310,-38010,-16520
16:21:06.759,,26530,-34720,-14350
16:21:06.769,,19880,-31850,-10010
16:21:06.779,,11340,-30590,-4760
16:21:06.789,,0,-30450,420
16:21:06.799,,-11760,-30520,4340
16:21:06.809,,-20930,-29050,5110
16:21:06.819,,-25480,-25550,5460
16:21:06.829,,-26740,-21350,4900
16:21:06.839,,-23380,-18410,2660
16:21:06.849,,1890,-12880,-70
16:21:06.859,,7350,-3710,280
16:21:06.869,,6370,5530,1050
16:21:06.879,,-630,14070,2870
16:21:06.889,,-8120,19810,4620
16:21:06.899,,-13090,22470,6860
16:21:06.909,,-16100,23520,9520
16:21:06.919,,-18130,23800,11550
16:21:06.929,,-20370,24080,12600
16:21:06.939,,-22610,24500,12810
16:21:06.949,,-23730,24430,12180
16:21:06.959,,-24150,23170,11200
16:21:06.969,,-25480,21490,7210
16:21:06.979,,-26460,19810,4480
16:21:06.989,,-24500,17920,910
16:21:06.999,,-21420,15470,-2660
16:21:07.009,,-17640,13300,-5740
16:21:07.019,,-13580,12180,-8330
16:21:07.029,,-9800,11830,-10780
16:21:07.039,,-6370,12180,-13090
16:21:07.049,,-3150,13510,-15330
16:21:07.059,,630,15120,-16800
16:21:07.069,,4480,16100,-18200
16:21:07.079,,7980,16870,-19670
16:21:07.089,,11970,18200,-21210
16:21:07.099,,16660,20300,-22470
16:21:07.109,,27510,20090,-22470
16:21:07.119,,34090,18130,-25060
16:21:07.129,,42280,15680,-26390
16:21:07.139,,48370,12950,-28000
16:21:07.149,,49630,9800,-29750
16:21:07.159,,44450,8820,-30380
16:21:07.169,,33320,10570,-28840
16:21:07.179,,19950,12390,-25620
16:21:07.189,,8400,12950,-20510
16:21:07.199,,210,12810,-13860
16:21:07.209,,-4130,12180,-7630
16:21:07.219,,-6090,11200,-1820
16:21:07.229,,-1190,7630,3990
16:21:07.239,,1120,5460,6790
16:21:07.249,,2030,4340,9730
16:21:07.259,,2800,2870,10500
16:21:07.269,,2100,1260,10360
16:21:07.279,,140,280,10430
16:21:07.289,,-1470,-700,10150
16:21:07.299,,-2450,-2520,9660
16:21:07.309,,-3220,-5040,9800
16:21:07.319,,-4340,-7140,10850
16:21:07.329,,-5530,-8260,12740
16:21:07.339,,-6860,-8960,15400
16:21:07.349,,-8820,-9170,18200
16:21:07.359,,-12740,-7980,22470
16:21:07.369,,-13930,-7280,24010
16:21:07.379,,-15120,-6930,24920
16:21:07.389,,-15330,-7210,25340
16:21:07.399,,-14210,-8050,24990
16:21:07.409,,-11480,-9240,23800
16:21:07.419,,-7140,-10780,21700
16:21:07.429,,-1400,-12250,19040
16:21:07.439,,5180,-13510,16100
16:21:07.449,,12390,-14700,13160
16:21:07.459,,19600,-16660,10570
16:21:07.469,,25060,-20160,7840
16:21:07.479,,27160,-24500,5110
16:21:07.489,,23240,-32200,-140
16:21:07.499,,19250,-35140,-2240
16:21:07.509,,17570,-38710,-5250
16:21:07.519,,16240,-40810,-8400
16:21:07.529,,14770,-39550,-11270
16:21:07.539,,15260,-35770,-12810
16:21:07.549,,17220,-31920,-13160
16:21:07.559,,19320,-28840,-12390
16:21:07.569,,21420,-26460,-11130
16:21:07.579,,22610,-24080,-9240
16:21:07.589,,22330,-22330,-5740
16:21:07.599,,17640,-21280,-1960
16:21:07.609,,10850,-20370,8540
16:21:07.619,,-4760,-18060,11970
16:21:07.629,,-10080,-15890,13860
16:21:07.639,,-12040,-13440,14000
16:21:07.649,,-12040,-11130,12810
16:21:07.659,,-10290,-9450,10850
16:21:07.669,,-7770,-8960,8260
16:21:07.679,,-5810,-8960,6230
16:21:07.689,,-3710,-7630,5180
16:21:07.699,,-3150,-5320,5530
16:21:07.709,,-2870,-2590,7700
16:21:07.719,,-3430,1540,11620
16:21:07.729,,-5180,6860,15400
16:21:07.739,,-5180,9380,20790
16:21:07.749,,-8610,15050,23870
16:21:07.759,,-8050,14560,22750
16:21:07.769,,-9660,13580,22120
16:21:07.779,,-16100,16030,22050
16:21:07.789,,-20440,18690,20580
16:21:07.799,,-19110,18690,17080
16:21:07.809,,-13510,17780,13790
16:21:07.819,,-6580,17360,11550
16:21:07.829,,-910,17570,9030
16:21:07.980,,-7000,6230,-22470
16:21:07.981,,-6790,9940,-24080
16:21:07.983,,-6790,9940,-24080
16:21:07.984,,-6790,9940,-24080
16:21:07.985,,-6790,9940,-24080
16:21:07.987,,-6790,9940,-24080
16:21:07.988,,-6790,9940,-24080
16:21:07.989,,-6790,9940,-24080
16:21:07.991,,-6930,14630,-23520
16:21:07.992,,-6930,14630,-23520
16:21:07.993,,-6930,14630,-23520
16:21:07.995,,-6930,14630,-23520
16:21:07.996,,-6930,14630,-23520
16:21:07.998,,-6930,14630,-23520
16:21:07.999,,-6930,14630,-22330
16:21:08.000,,-3850,17710,-22330
16:21:08.002,,-3850,17710,-22330
16:21:08.009,,1960,19040,-18550
16:21:08.019,,8820,17920,-14140
16:21:08.029,,14560,16310,-10430
16:21:08.039,,18410,15260,-8120
16:21:08.049,,19600,15750,-5950
16:21:08.059,,22260,14140,-7350
16:21:08.069,,23170,12950,-7070
16:21:08.079,,20860,14070,-5180
16:21:08.089,,20160,12670,-5390
16:21:08.099,,19390,9450,-4970
16:21:08.109,,14840,7840,-1680
16:21:08.119,,8820,5740,1890
16:21:08.129,,-3430,-980,6370
16:21:08.139,,-10430,-3010,8680
16:21:08.149,,-16800,-4130,10290
16:21:08.159,,-21140,-5180,11130
16:21:08.169,,-23870,-6090,11900
16:21:08.179,,-26040,-5950,12950
16:21:08.189,,-26600,-4340,13860
16:21:08.199,,-23870,-2100,14700
16:21:08.209,,-17850,-210,15610
16:21:08.219,,-10290,1050,16240
16:21:08.229,,-2240,1750,16310
16:21:08.239,,4760,2310,16170
16:21:08.249,,10080,2730,15820
16:21:08.259,,17430,1260,13230
16:21:08.269,,20300,-1260,11130
16:21:08.279,,23660,-4620,8470
16:21:08.289,,25620,-8120,5810
16:21:08.299,,26670,-10920,3290
16:21:08.309,,28700,-12950,70
16:21:08.319,,31570,-13720,-3430
16:21:08.329,,34580,-12740,-6930
16:21:08.339,,38500,-11620,-10080
16:21:08.349,,42280,-12530,-12950
16:21:08.359,,43330,-15260,-14560
16:21:08.369,,40460,-17500,-14280
16:21:08.379,,34160,-17570,-8820
16:21:08.389,,21210,-16520,-4410
16:21:08.399,,15750,-17150,-1820
16:21:08.409,,10710,-18620,-1680
16:21:08.419,,6230,-19880,-2870
16:21:08.429,,1820,-19880,-5810
16:21:08.439,,0,-19530,-8750
16:21:08.449,,-2520,-18550,-9660
16:21:08.459,,-6720,-17080,-9380
16:21:08.469,,-11340,-13440,-6930
16:21:08.479,,-15540,-7070,-3290
16:21:08.489,,-15120,-2730,-840
16:21:08.499,,-12950,1330,2870
16:21:08.509,,-9240,5460,2030
16:21:08.519,,4760,6160,210
16:21:08.529,,7630,7980,420
16:21:08.539,,6930,10710,1120
16:21:08.549,,4620,12740,1330
16:21:08.559,,1960,14070,2030
16:21:08.569,,-420,14700,2800
16:21:08.579,,-1540,13860,3640
16:21:08.589,,-2100,12670,4550
16:21:08.599,,-2870,11970,5110
16:21:08.609,,-3430,12180,5320
16:21:08.619,,-3220,12600,5320
16:21:08.629,,-2660,12250,4620
16:21:08.639,,-2310,11760,140
16:21:08.649,,-1400,12180,-1540
16:21:08.659,,1330,10780,-3500
16:21:08.669,,4340,8120,-5250
16:21:08.679,,5740,6440,-6650
16:21:08.689,,5670,6370,-7980
16:21:08.699,,4900,6650,-9660
16:21:08.709,,2310,6790,-11060
16:21:08.719,,-770,7210,-11620
16:21:08.729,,-3150,7420,-12180
16:21:08.739,,-5600,7070,-13090
16:21:08.749,,-8190,7000,-13790
16:21:08.759,,-10780,6930,-13720
16:21:08.769,,-16940,7490,-13930
16:21:08.779,,-19110,9730,-15120
16:21:08.789,,-21140,12460,-16030
16:21:08.799,,-22190,15750,-16170
16:21:08.809,,-21630,20930,-16870
16:21:08.819,,-21210,25690,-17710
16:21:08.829,,-20230,29260,-18410
16:21:08.839,,-18410,35070,-18130
16:21:08.849,,-16310,41020,-17920
16:21:08.859,,-13020,45640,-16730
16:21:08.869,,-8890,49000,-16240
16:21:08.879,,-5250,51800,-16940
16:21:08.889,,-2310,54670,-18340
16:21:08.899,,-70,60900,-19810
16:21:08.909,,-1260,61810,-21280
16:21:08.919,,-4550,62020,-21350
16:21:08.929,,-9660,62440,-21490
16:21:08.939,,-11200,59850,-24710
16:21:08.949,,-13020,59080,-25200
16:21:08.959,,-16100,61670,-23660
16:21:08.969,,-16800,63980,-23030
16:21:08.979,,-16380,65030,-23100
16:21:08.989,,-17570,66290,-21840
16:21:08.999,,-20090,67900,-19670
16:21:09.009,,-22260,68250,-17780
16:21:09.019,,-25480,67760,-15540
16:21:09.029,,-33670,67200,-13650
16:21:09.039,,-35140,66290,-15120
16:21:09.049,,-34650,65100,-17500
16:21:09.059,,-32200,64470,-20650
16:21:09.069,,-28840,64890,-24150
16:21:09.079,,-23520,65310,-28490
16:21:09.089,,-17780,66150,-32130
16:21:09.099,,-12320,66990,-34510
16:21:09.256,,-6440,55090,-31220
16:21:09.257,,-6440,55090,-31220
16:21:09.259,,-6440,55090,-31220
16:21:09.260,,-6440,55090,-31220
16:21:09.261,,-2310,56140,-30940
16:21:09.263,,-2310,56140,-30940
16:21:09.264,,-2310,56140,-30940
16:21:09.265,,-2310,56140,-30940
16:21:09.267,,-2310,56140,-30940
16:21:09.268,,-2310,56140,-30940
16:21:09.270,,-2310,56140,-30940
16:21:09.271,,1470,57330,-29890
16:21:09.272,,1470,57330,-29890
16:21:09.274,,1470,57330,-29890
16:21:09.275,,1470,57330,-29890
16:21:09.276,,1470,57330,-29890
16:21:09.278,,1470,57330,-29890
16:21:09.279,,1470,58660,-28350
16:21:09.289,,7280,58870,-27230
16:21:09.299,,9730,57820,-25480
16:21:09.309,,10920,56560,-23730
16:21:09.319,,11690,55230,-22960
16:21:09.329,,11900,53830,-22890
16:21:09.339,,11620,52920,-22190
16:21:09.349,,10920,52500,-20860
16:21:09.359,,9800,51800,-19810
16:21:09.369,,9170,50750,-19390
16:21:09.379,,9310,49700,-19250
16:21:09.389,,10010,48720,-19110
16:21:09.399,,10360,47670,-18900
16:21:09.409,,9170,45500,-19250
16:21:09.419,,9170,44240,-18340
16:21:09.429,,10500,42910,-17150
16:21:09.439,,10850,42000,-16030
16:21:09.449,,10360,41370,-15050
16:21:09.459,,10010,40810,-14700
16:21:09.469,,9940,40390,-14840
16:21:09.479,,10710,39760,-15190
16:21:09.489,,12320,38920,-15610
16:21:09.499,,14140,38220,-15750
16:21:09.509,,15890,37520,-15750
16:21:09.519,,17500,36960,-15260
16:21:09.529,,18690,36610,-14700
16:21:09.539,,20230,36680,-13160
16:21:09.549,,20370,36680,-12250
16:21:09.559,,19950,36400,-11690
16:21:09.569,,19950,35840,-11620
16:21:09.579,,20020,35350,-11410
16:21:09.589,,20020,35070,-11130
16:21:09.599,,19600,35490,-10850
16:21:09.609,,18480,35840,-9870
16:21:09.619,,17150,36330,-8750
16:21:09.629,,14840,37100,-7630
16:21:09.639,,11900,37590,-6650
16:21:09.649,,9240,37520,-6160
16:21:09.659,,7210,36680,-5950
16:21:09.669,,5880,33810,-5530
16:21:09.679,,3640,33530,-6300
16:21:09.689,,840,33110,-6370
16:21:09.699,,-1750,33250,-6090
16:21:09.709,,-3850,34160,-5950
16:21:09.719,,-5810,35490,-5740
16:21:09.729,,-7770,36610,-5390
16:21:09.739,,-9940,38080,-5880
16:21:09.749,,-11900,38920,-7350
16:21:09.759,,-13580,38990,-8750
16:21:09.769,,-15190,39060,-9730
16:21:09.779,,-15330,39550,-10150
16:21:09.789,,-14210,40040,-10360
16:21:09.799,,-9100,42910,-9940
16:21:09.809,,-5530,45570,-8750
16:21:09.819,,-2240,47670,-7210
16:21:09.829,,490,49350,-5950
16:21:09.839,,2240,51310,-5250
16:21:09.849,,1820,53690,-5040
16:21:09.859,,-140,54600,-5810
16:21:09.869,,490,54390,-6580
16:21:09.879,,3080,53760,-7210
16:21:09.889,,5180,52780,-8470
16:21:09.899,,6300,51310,-9800
16:21:09.909,,6160,49560,-11200
16:21:09.919,,4970,48160,-13230
16:21:09.929,,1050,45920,-13720
16:21:09.939,,-1330,43540,-14350
16:21:09.949,,-4900,40950,-15330
16:21:09.959,,-9660,38570,-16310
16:21:09.969,,-13860,37030,-17500
16:21:09.979,,-13720,35770,-18410
16:21:09.989,,-9590,34510,-19880
16:21:09.999,,-1820,32970,-21420
16:21:10.009,,17080,29470,-21070
16:21:10.019,,32970,21840,-23380
16:21:10.029,,36960,15330,-28630
16:21:10.039,,32690,14070,-31430
16:21:10.049,,24710,15330,-28000
16:21:10.059,,6930,16730,-25970
16:21:10.069,,-1260,17080,-24080
16:21:10.079,,-6300,14560,-20650
16:21:10.089,,-7630,9800,-16100
16:21:10.099,,-6860,7140,-13230
16:21:10.109,,-5040,6720,-11690
16:21:10.119,,-2310,7700,-10290
16:21:10.129,,1470,7840,-8120
16:21:10.139,,5320,8400,-6510
16:21:10.149,,8960,8120,-4130
16:21:10.159,,11550,7560,-3430
16:21:10.169,,13230,6370,-3430
16:21:10.179,,11550,-490,-770
16:21:10.189,,7350,-5110,1330
16:21:10.199,,1750,-9450,3220
16:21:10.209,,-4410,-13440,4410
16:21:10.219,,-10570,-16450,4200
16:21:10.229,,-15120,-18340,2730
16:21:10.239,,-16730,-19390,840
16:21:10.249,,-16730,-19110,-1330
16:21:10.259,,-14840,-18760,-4830
16:21:10.269,,-13370,-16940,-8820
16:21:10.279,,-11690,-12040,-12530
16:21:10.289,,-5740,-7350,-15470
16:21:10.299,,5110,-5040,-16660
16:21:10.309,,25270,-8190,-17010
16:21:10.319,,33740,-11970,-16380
16:21:10.329,,39410,-16520,-15050
16:21:10.339,,40810,-21280,-12180
16:21:10.349,,36680,-25480,-8960
16:21:10.359,,26740,-27440,-6650
16:21:10.369,,14210,-26600,-4340
16:21:10.520,,-2870,-21770,8820
16:21:10.521,,-2870,-21770,8820
16:21:10.523,,-1750,-21000,9590
16:21:10.524,,-1750,-21000,9590
16:21:10.525,,-1750,-21000,9590
16:21:10.527,,-1750,-21000,9590
16:21:10.528,,-1750,-21000,9590
16:21:10.530,,-1750,-21000,9590
16:21:10.531,,-1750,-21000,9590
16:21:10.532,,-910,-19530,9660
16:21:10.534,,-910,-19530,9660
16:21:10.535,,-910,-19530,9660
16:21:10.536,,-910,-19530,9660
16:21:10.538,,-910,-19530,9660
16:21:10.539,,-910,-19530,9660
16:21:10.541,,-910,-17500,9170
16:21:10.542,,-420,-17500,9170
16:21:10.549,,-420,-17500,9170
16:21:10.559,,-490,-15260,7070
16:21:10.569,,-1750,-9100,6510
16:21:10.579,,-1400,-6510,6020
16:21:10.589,,-1120,-4060,4480
16:21:10.599,,-280,-2030,2240
16:21:10.609,,1820,-560,350
16:21:10.619,,4340,1190,-1610
16:21:10.629,,5460,2730,-3360
16:21:10.639,,3710,4200,-4550
16:21:10.649,,-490,6860,-5740
16:21:10.659,,-7000,9310,-6930
16:21:10.669,,-15820,10220,-7910
16:21:10.679,,-23590,10850,-8960
16:21:10.689,,-29890,11060,-11690
16:21:10.699,,-42000,13860,-13580
16:21:10.709,,-45360,18760,-16800
16:21:10.719,,-46270,23870,-21630
16:21:10.729,,-43610,29610,-28490
16:21:10.739,,-35840,34300,-36050
16:21:10.749,,-24990,35350,-41860
16:21:10.759,,-15050,32970,-44590
16:21:10.769,,-9660,28420,-44800
16:21:10.779,,-10500,23310,-44030
16:21:10.789,,-16940,20020,-42700
16:21:10.799,,-27650,18970,-40810
16:21:10.809,,-40110,19250,-38570
16:21:10.819,,-51170,22400,-37030
16:21:10.829,,-61390,23450,-39340
16:21:10.839,,-60130,23520,-43120
16:21:10.849,,-56210,23170,-47250
16:21:10.859,,-51590,22750,-50960
16:21:10.869,,-47670,22120,-54390
16:21:10.879,,-45500,20650,-58660
16:21:10.889,,-46900,19180,-64890
16:21:10.899,,-51590,17150,-74060
16:21:10.909,,-60480,17010,-83720
16:21:10.919,,-73360,21000,-92050
16:21:10.929,,-85960,25620,-98560
16:21:10.939,,-93590,27790,-102970
16:21:10.949,,-90650,21560,-111580
16:21:10.959,,-78050,11760,-117530
16:21:10.969,,-61250,70,-122360
16:21:10.979,,-45360,-10220,-125510
16:21:10.989,,-33250,-16520,-128520
16:21:10.999,,-27300,-17710,-130830
16:21:11.009,,-26460,-16870,-130760
16:21:11.019,,-27580,-16660,-129640
16:21:11.029,,-30450,-15820,-128380
16:21:11.039,,-35350,-15680,-124880
16:21:11.049,,-43540,-16800,-118650
16:21:11.059,,-52850,-17850,-111720
16:21:11.069,,-58940,-17570,-106050
16:21:11.079,,-61950,-18410,-100240
16:21:11.089,,-60690,-19390,-100590
16:21:11.099,,-56350,-20230,-102690
16:21:11.109,,-47600,-21070,-106120
16:21:11.119,,-36050,-22400,-111090
16:21:11.129,,-24220,-24500,-116480
16:21:11.139,,-15260,-26740,-119490
16:21:11.149,,-9940,-27090,-118720
16:21:11.159,,-7630,-26250,-115080
16:21:11.169,,-9590,-25550,-110950
16:21:11.179,,-16100,-24080,-107870
16:21:11.189,,-24500,-21630,-105840
16:21:11.199,,-32270,-18970,-104510
16:21:11.209,,-40670,-12880,-99540
16:21:11.219,,-41020,-9170,-96110
16:21:11.229,,-39970,-5810,-93240
16:21:11.239,,-38920,-2520,-90160
16:21:11.249,,-38080,1540,-87080
16:21:11.259,,-36330,5600,-84070
16:21:11.269,,-34510,8260,-81340
16:21:11.279,,-34370,9170,-79870
16:21:11.289,,-35280,9730,-79800
16:21:11.299,,-35350,10640,-80500
16:21:11.309,,-34090,10990,-81200
16:21:11.319,,-31150,10360,-81270
16:21:11.329,,-27370,9310,-79240
16:21:11.339,,-18270,8960,-78120
16:21:11.349,,-14840,9730,-77770
16:21:11.359,,-12880,11130,-77770
16:21:11.369,,-11340,12880,-77420
16:21:11.379,,-9310,14280,-76020
16:21:11.389,,-7070,14630,-73570
16:21:11.399,,-4900,14070,-71120
16:21:11.409,,-3430,12530,-69020
16:21:11.419,,-2870,10570,-66780
16:21:11.429,,-3220,9100,-63980
16:21:11.439,,-4270,9450,-60760
16:21:11.449,,-5460,10850,-57050
16:21:11.459,,-6020,10920,-49000
16:21:11.469,,-3570,9590,-45360
16:21:11.479,,-1890,8260,-42210
16:21:11.489,,350,6580,-39410
16:21:11.499,,2730,4830,-35910
16:21:11.509,,4760,3150,-31920
16:21:11.519,,6440,1890,-27020
16:21:11.529,,7980,350,-24570
16:21:11.539,,8540,0,-20790
16:21:11.549,,6860,1330,-15190
16:21:11.559,,5740,2590,-13090
16:21:11.569,,8120,1750,-10920
16:21:11.579,,13230,-140,-7910
16:21:11.589,,27370,-7490,-6650
16:21:11.599,,35840,-13090,-6580
16:21:11.752,,54880,-11130,40530
16:21:11.754,,54880,-11130,40530
16:21:11.755,,54880,-11130,40530
16:21:11.756,,51590,-10920,42350
16:21:11.758,,51590,-10920,42350
16:21:11.759,,51590,-10920,42350
16:21:11.761,,51590,-10920,42350
16:21:11.762,,51590,-10920,42350
16:21:11.763,,51590,-10920,42350
16:21:11.765,,51590,-10920,42350
16:21:11.766,,48020,-8820,45010
16:21:11.767,,48020,-8820,45010
16:21:11.769,,48020,-8820,45010
16:21:11.770,,48020,-8820,45010
16:21:11.771,,48020,-8820,45010
16:21:11.773,,48020,-8820,45010
16:21:11.774,,48020,-5390,47390
16:21:11.779,,45990,-5390,47390
16:21:11.789,,44660,-1470,48370
16:21:11.799,,43260,2450,47390
16:21:11.809,,42280,5950,44940
16:21:11.819,,42000,8050,42280
16:21:11.829,,42280,7770,40250
16:21:11.839,,43820,5250,38570
16:21:11.849,,49350,-5040,35210
16:21:11.859,,52850,-11830,34370
16:21:11.869,,56700,-18900,33740
16:21:11.879,,60480,-25760,33110
16:21:11.889,,64120,-31710,32130
16:21:11.899,,67550,-36330,29820
16:21:11.909,,71050,-39410,27370
16:21:11.919,,75320,-42140,25760
16:21:11.929,,79100,-45150,24010
16:21:11.939,,82320,-47460,21490
16:21:11.949,,84560,-49560,19390
16:21:11.959,,84770,-51030,17920
16:21:11.969,,83300,-51520,16380
16:21:11.979,,74830,-49140,16660
16:21:11.989,,70140,-46480,17430
16:21:11.999,,64750,-42910,20370
16:21:12.009,,61530,-38850,21980
16:21:12.019,,63420,-35070,20930
16:21:12.029,,63280,-31570,17640
16:21:12.039,,56700,-28000,14770
16:21:12.049,,47880,-25270,12250
16:21:12.059,,41790,-24570,9100
16:21:12.069,,39760,-25900,5250
16:21:12.079,,39970,-27790,1680
16:21:12.089,,41020,-29680,-840
16:21:12.099,,43400,-31080,-4760
16:21:12.109,,46900,-30380,-6160
16:21:12.119,,47810,-28700,-7350
16:21:12.129,,47250,-26600,-6510
16:21:12.139,,43190,-23520,-5950
16:21:12.149,,42140,-23100,-9450
16:21:12.159,,39970,-22330,-8540
16:21:12.169,,38430,-22120,-7140
16:21:12.179,,37520,-22120,-6650
16:21:12.189,,38220,-22190,-9170
16:21:12.199,,39970,-23100,-12040
16:21:12.209,,40320,-22890,-13370
16:21:12.219,,39830,-21700,-12530
16:21:12.229,,38850,-18340,-12040
16:21:12.239,,35490,-17570,-12390
16:21:12.249,,32340,-16590,-12460
16:21:12.259,,28210,-15400,-12180
16:21:12.269,,24220,-15120,-11690
16:21:12.279,,21350,-15260,-11130
16:21:12.289,,18970,-15260,-10710
16:21:12.299,,17080,-14840,-10290
16:21:12.309,,16660,-14210,-9450
16:21:12.319,,17570,-13720,-9030
16:21:12.329,,18550,-13090,-8470
16:21:12.339,,21210,-11200,-7770
16:21:12.349,,22820,-8960,-6930
16:21:12.359,,22960,-4830,-4830
16:21:12.369,,22050,-1120,-3570
16:21:12.379,,20860,1960,-3780
16:21:12.389,,17710,4340,-4130
16:21:12.399,,14210,6300,-3290
16:21:12.409,,11620,8050,-2030
16:21:12.419,,9380,9240,-980
16:21:12.429,,6930,9940,210
16:21:12.439,,4200,9730,1400
16:21:12.449,,1540,9100,2730
16:21:12.459,,-420,7910,3850
16:21:12.469,,-2100,6230,4760
16:21:12.479,,-3430,4200,5600
16:21:12.489,,-5810,70,6440
16:21:12.499,,-5950,-1120,6090
16:21:12.509,,-3990,-2100,5320
16:21:12.519,,-210,-3150,4550
16:21:12.529,,4620,-3640,3850
16:21:12.539,,9520,-3290,3010
16:21:12.549,,14000,-2660,1330
16:21:12.559,,18410,-2380,-980
