Sensors' Acquisition [Hz]: Acc@104.0 
hh:mm:ss.ms, Annotation , AccX [mg], AccY, AccZ
12:38:46.344,,-49,-1,-1013
12:38:46.354,,-49,0,-1011
12:38:46.364,,-50,0,-1012
12:38:46.374,,-48,-1,-1011
12:38:46.384,,-49,0,-1009
12:38:46.394,,-49,0,-1009
12:38:46.404,,-49,-1,-1009
12:38:46.414,,-49,0,-1009
12:38:46.424,,-49,0,-1008
12:38:46.434,>Stationary,,,
12:38:46.435,,-48,-1,-1009
12:38:46.444,,-48,-1,-1010
12:38:46.454,,-49,0,-1007
12:38:46.464,,-50,0,-1008
12:38:46.474,,-49,0,-1007
12:38:46.484,,-49,0,-1007
12:38:46.494,,-49,0,-1009
12:38:46.504,,-50,0,-1008
12:38:46.514,,-50,0,-1007
12:38:46.524,,-49,0,-1007
12:38:46.534,,-49,0,-1007
12:38:46.544,,-49,-1,-1007
12:38:46.554,,-50,0,-1007
12:38:46.564,,-49,0,-1006
12:38:46.574,,-49,-1,-1005
12:38:46.584,,-49,0,-1007
12:38:46.594,,-49,0,-1006
12:38:46.604,,-48,-1,-1007
12:38:46.614,,-49,0,-1007
12:38:46.624,,-50,-1,-1006
12:38:46.634,,-49,0,-1006
12:38:46.644,,-49,0,-1005
12:38:46.654,,-50,0,-1005
12:38:46.664,,-49,0,-1006
12:38:46.674,,-49,0,-1006
12:38:46.684,,-49,0,-1006
12:38:46.694,,-50,0,-1006
12:38:46.704,,-48,0,-1006
12:38:46.714,,-49,0,-1005
12:38:46.724,,-49,-1,-1004
12:38:46.734,,-48,5,-1036
12:38:46.744,,-63,33,-1144
12:38:46.754,,-52,14,-1094
12:38:46.764,,-72,-2,-936
12:38:46.774,,-156,2,-605
12:38:46.784,,-78,158,-704
12:38:46.794,,-55,57,-1187
12:38:46.804,,-11,54,-690
12:38:46.814,,7,8,-1105
12:38:46.824,,-9,-16,-1053
12:38:46.834,,-29,-92,-1023
12:38:46.844,,-41,-115,-1000
12:38:46.854,,-60,-111,-999
12:38:46.864,,-56,-68,-1006
12:38:46.874,,-45,-5,-1004
12:38:46.884,,-52,-11,-1005
12:38:46.894,,-58,13,-1003
12:38:46.904,,-61,55,-1006
12:38:46.914,,-55,52,-1003
12:38:46.924,,-42,-4,-1004
12:38:46.934,,-39,-18,-1005
12:38:46.944,,-33,-1,-1006
12:38:46.954,,-48,-5,-1004
12:38:46.964,,-46,7,-1004
12:38:46.974,,-48,-1,-1004
12:38:46.984,,-47,-1,-1004
12:38:46.994,,-50,0,-1004
12:38:47.004,,-51,1,-1005
12:38:47.014,,-60,8,-1002
12:38:47.024,,-84,22,-1002
12:38:47.034,,-109,27,-1001
12:38:47.044,,-110,32,-1000
12:38:47.054,,-101,28,-1001
12:38:47.064,,-84,22,-1001
12:38:47.074,,-73,21,-1002
12:38:47.084,,-63,20,-1002
12:38:47.094,,-43,13,-1005
12:38:47.104,,-40,8,-1004
12:38:47.114,,-39,0,-1005
12:38:47.124,,-36,-7,-1005
12:38:47.134,,-31,-13,-1005
12:38:47.144,,-25,-18,-1005
12:38:47.154,,-19,-24,-1005
12:38:47.164,,-16,-26,-1004
12:38:47.174,,-18,-25,-1004
12:38:47.184,,-23,-21,-1004
12:38:47.194,,-25,-20,-1005
12:38:47.204,,-30,-15,-1004
12:38:47.214,,-32,-14,-1002
12:38:47.224,,-29,-15,-1006
12:38:47.234,,-39,-7,-1004
12:38:47.244,,-49,-1,-1004
12:38:47.254,,-49,0,-1003
12:38:47.264,,-50,0,-1004
12:38:47.274,,-50,-1,-1004
12:38:47.284,,-50,-1,-1003
12:38:47.294,,-50,-1,-1003
12:38:47.304,,-49,-1,-1003
12:38:47.314,,-49,0,-1003
12:38:47.324,,-49,-1,-1002
12:38:47.334,,-50,-1,-1003
12:38:47.344,,-49,-1,-1003
12:38:47.354,,-49,-1,-1004
12:38:47.364,,-49,-1,-1003
12:38:47.374,,-49,0,-1003
12:38:47.384,,-49,0,-1003
12:38:47.394,,-49,-1,-1003
12:38:47.404,,-49,-1,-1003
12:38:47.414,,-49,0,-1003
12:38:47.424,,-49,-1,-1003
12:38:47.434,,-49,-1,-1003
12:38:47.444,,-50,-1,-1003
12:38:47.454,,-50,0,-1003
12:38:47.464,,-49,0,-1002
12:38:47.474,,-49,-1,-1003
12:38:47.484,,-49,-1,-1003
12:38:47.494,,-50,-1,-1001
12:38:47.504,,-50,-1,-1003
12:38:47.514,,-49,0,-1003
12:38:47.524,,-50,0,-1002
12:38:47.534,,-50,-1,-1002
12:38:47.544,,-48,0,-1003
12:38:47.554,,-49,0,-1003
12:38:47.564,,-49,-1,-1003
12:38:47.574,,-49,-1,-1004
12:38:47.584,,-49,-1,-1002
12:38:47.594,,-49,0,-1002
12:38:47.604,,-50,-1,-1003
12:38:47.614,,-49,0,-1002
12:38:47.624,,-49,0,-1002
12:38:47.634,,-50,-1,-1003
12:38:47.644,,-49,-1,-1002
12:38:47.654,,-50,0,-1001
12:38:47.664,,-49,-1,-1002
12:38:47.674,,-50,0,-1003
12:38:47.684,,-50,0,-1001
12:38:47.694,,-50,-1,-1002
12:38:47.704,,-50,0,-1003
12:38:47.714,,-49,-1,-1003
12:38:47.724,,-49,0,-1003
12:38:47.734,,-50,0,-1002
12:38:47.744,,-49,-1,-1003
12:38:47.754,,-50,0,-1002
12:38:47.764,,-49,0,-1003
12:38:47.774,,-50,0,-1003
12:38:47.784,,-49,0,-1002
12:38:47.794,,-49,0,-1003
12:38:47.804,,-49,0,-1003
12:38:47.814,,-48,-1,-1003
12:38:47.824,,-49,-1,-1003
12:38:47.834,,-49,0,-1003
12:38:47.953,,-49,0,-1002
12:38:47.954,,-49,0,-1002
12:38:47.955,,-49,0,-1002
12:38:47.957,,-50,0,-1001
12:38:47.958,,-50,0,-1001
12:38:47.959,,-50,0,-1001
12:38:47.961,,-50,0,-1001
12:38:47.962,,-50,0,-1001
12:38:47.963,,-50,0,-1001
12:38:47.965,,-50,0,-1001
12:38:47.966,,-49,0,-1002
12:38:47.968,,-49,0,-1002
12:38:47.969,,-49,0,-1002
12:38:47.974,,-49,0,-1002
12:38:47.984,,-49,-1,-1002
12:38:47.994,,-49,0,-1002
12:38:48.004,,-50,-1,-1002
12:38:48.014,,-50,-1,-1002
12:38:48.024,,-50,0,-1002
12:38:48.034,,-50,0,-1003
12:38:48.044,,-49,0,-1003
12:38:48.054,,-50,-1,-1003
12:38:48.064,,-48,0,-1001
12:38:48.074,,-49,0,-1001
12:38:48.084,,-49,0,-1002
12:38:48.094,,-49,-1,-1002
12:38:48.104,,-49,0,-1001
12:38:48.114,,-49,-1,-1002
12:38:48.124,,-49,0,-1002
12:38:48.134,,-49,0,-1001
12:38:48.144,,-49,-1,-1003
12:38:48.154,,-50,0,-1002
12:38:48.164,,-49,-1,-1004
12:38:48.174,,-49,-1,-1002
12:38:48.184,,-49,0,-1003
12:38:48.194,,-49,0,-1002
12:38:48.204,,-50,0,-1001
12:38:48.214,,-49,0,-1002
12:38:48.224,,-49,-1,-1003
12:38:48.234,,-49,-1,-1002
12:38:48.244,,-50,-1,-1001
12:38:48.254,,-50,0,-1002
12:38:48.264,,-50,0,-1002
12:38:48.274,,-49,0,-1003
12:38:48.284,,-49,-1,-1002
12:38:48.294,,-48,-1,-1002
12:38:48.304,,-49,-1,-1002
12:38:48.314,,-49,0,-1001
12:38:48.324,,-49,-1,-1002
12:38:48.334,,-50,0,-1001
12:38:48.344,,-50,-1,-1002
12:38:48.354,,-50,-1,-1003
12:38:48.364,,-49,0,-1002
12:38:48.374,,-49,0,-1002
12:38:48.384,,-51,-1,-1003
12:38:48.394,,-50,0,-1002
12:38:48.404,,-50,-1,-1002
12:38:48.414,,-49,0,-1002
12:38:48.424,,-49,-1,-1001
12:38:48.434,,-49,-1,-1002
12:38:48.444,,-49,0,-1002
12:38:48.454,,-49,0,-1002
12:38:48.464,,-49,-1,-1002
12:38:48.474,,-49,0,-1002
12:38:48.484,,-50,-1,-1002
12:38:48.494,,-49,0,-1001
12:38:48.504,,-49,-1,-1002
12:38:48.514,,-50,-1,-1001
12:38:48.524,,-50,0,-1002
12:38:48.534,,-50,0,-1003
12:38:48.544,,-48,0,-1002
12:38:48.554,,-49,0,-1002
12:38:48.564,,-49,0,-1001
12:38:48.574,,-49,0,-1002
12:38:48.584,,-49,0,-1001
12:38:48.594,,-48,0,-1002
12:38:48.604,,-48,-1,-1002
12:38:48.614,,-49,0,-1002
12:38:48.624,,-50,0,-1002
12:38:48.634,,-49,-1,-1003
12:38:48.644,,-49,0,-1002
12:38:48.654,,-49,0,-1002
12:38:48.664,,-49,-1,-1002
12:38:48.674,,-50,0,-1002
12:38:48.684,,-49,0,-1002
12:38:48.694,,-49,-2,-1001
12:38:48.704,,-50,-1,-1001
12:38:48.714,,-49,-1,-1001
12:38:48.724,,-50,0,-1001
12:38:48.734,,-49,0,-1002
12:38:48.744,,-49,-1,-1002
12:38:48.754,,-50,0,-1002
12:38:48.764,,-50,0,-1000
12:38:48.774,,-48,-1,-1003
12:38:48.784,,-50,0,-1002
12:38:48.794,,-49,0,-1002
12:38:48.804,,-49,-1,-1002
12:38:48.814,,-50,-1,-1002
12:38:48.824,,-50,0,-1001
12:38:48.834,,-49,-1,-1002
12:38:48.844,,-49,-1,-1001
12:38:48.854,,-49,-1,-1002
12:38:48.864,,-49,0,-1002
12:38:48.874,,-50,0,-1002
12:38:48.884,,-50,-2,-1002
12:38:48.894,,-49,0,-1002
12:38:48.904,,-49,-1,-1001
12:38:48.914,,-48,0,-1002
12:38:48.924,,-49,0,-1002
12:38:48.934,,-50,-1,-1002
12:38:48.944,,-50,0,-1001
12:38:48.954,,-49,0,-1002
12:38:48.964,,-49,0,-1002
12:38:48.974,,-49,0,-1001
12:38:48.984,,-49,-1,-1002
12:38:48.994,,-48,-1,-1002
12:38:49.004,,-49,0,-1002
12:38:49.014,,-48,0,-1003
12:38:49.024,,-50,0,-1002
12:38:49.034,,-49,0,-1001
12:38:49.044,,-49,0,-1002
12:38:49.054,,-49,0,-1002
12:38:49.064,,-49,0,-1002
12:38:49.074,,-50,0,-1001
12:38:49.084,,-49,0,-1002
12:38:49.094,,-49,0,-1002
12:38:49.104,,-49,0,-1002
12:38:49.114,,-49,-1,-1002
12:38:49.124,,-49,-1,-1002
12:38:49.134,,-49,0,-1002
12:38:49.144,,-49,0,-1001
12:38:49.154,,-49,-1,-1002
12:38:49.164,,-50,0,-1001
12:38:49.174,,-49,0,-1002
12:38:49.184,,-50,0,-1002
12:38:49.194,,-49,0,-1002
12:38:49.204,,-49,0,-1001
12:38:49.214,,-49,0,-1001
12:38:49.224,,-50,0,-1001
12:38:49.234,,-50,0,-1002
12:38:49.244,,-50,0,-1002
12:38:49.254,,-48,0,-1001
12:38:49.264,,-49,0,-1002
12:38:49.274,,-50,-1,-1002
12:38:49.284,,-49,0,-1002
12:38:49.294,,-49,0,-1001
12:38:49.304,,-49,-1,-1002
12:38:49.314,,-50,0,-1002
12:38:49.324,,-50,0,-1002
12:38:49.334,,-49,0,-1000
12:38:49.344,,-50,-1,-1002
12:38:49.354,,-50,0,-1002
12:38:49.364,,-49,-1,-1002
12:38:49.374,,-49,0,-1002
12:38:49.384,,-50,-1,-1001
12:38:49.509,,-52,0,-1002
12:38:49.510,,-52,0,-1002
12:38:49.511,,-52,0,-1002
12:38:49.513,,-52,0,-1002
12:38:49.514,,-52,0,-1002
12:38:49.515,,-49,-1,-1002
12:38:49.517,,-49,-1,-1002
12:38:49.518,,-49,-1,-1002
12:38:49.520,,-49,-1,-1002
12:38:49.521,,-49,-1,-1002
12:38:49.522,,-49,-1,-1002
12:38:49.524,,-49,-1,-1002
12:38:49.525,,-39,-8,-1002
12:38:49.526,,-39,-8,-1002
12:38:49.534,,-31,-16,-1002
12:38:49.544,,-27,-18,-1002
12:38:49.554,,-30,-16,-1002
12:38:49.564,,-45,-3,-1002
12:38:49.574,,-49,0,-1001
12:38:49.584,,-50,0,-1001
12:38:49.594,,-50,0,-1002
12:38:49.604,,-50,0,-1002
12:38:49.614,,-54,3,-1002
12:38:49.624,,-50,0,-1001
12:38:49.634,,-46,-2,-1002
12:38:49.644,,-48,-2,-1002
12:38:49.654,,-52,1,-1002
12:38:49.664,,-53,1,-1002
12:38:49.674,,-51,0,-1002
12:38:49.684,,-49,0,-1002
12:38:49.694,,-46,-3,-1002
12:38:49.704,,-46,-3,-1001
12:38:49.714,,-47,-2,-1002
12:38:49.724,,-49,0,-1002
12:38:49.734,,-49,0,-1001
12:38:49.744,,-49,0,-1003
12:38:49.754,,-48,0,-1002
12:38:49.764,,-47,-5,-1002
12:38:49.774,,-47,-2,-1001
12:38:49.784,,-48,-1,-1000
12:38:49.794,,-44,-5,-1002
12:38:49.804,,-51,8,-1003
12:38:49.814,,-26,44,-1000
12:38:49.824,,-41,13,-1002
12:38:49.834,,-69,-16,-1002
12:38:49.844,,-62,-41,-1001
12:38:49.854,,-60,-2,-1003
12:38:49.864,,-50,0,-1002
12:38:49.874,,-64,11,-1000
12:38:49.884,,-64,32,-1000
12:38:49.894,,-61,34,-1001
12:38:49.904,,-54,17,-1001
12:38:49.914,,-37,-10,-1003
12:38:49.924,,-37,-11,-1002
12:38:49.934,,-39,-5,-1001
12:38:49.944,,-43,-1,-1003
12:38:49.954,,-48,-3,-1002
12:38:49.964,,-51,-10,-1001
12:38:49.974,,-53,-17,-1001
12:38:49.984,,-49,-15,-1002
12:38:49.994,,-49,-12,-1002
12:38:50.004,,-49,-7,-1002
12:38:50.014,,-51,-2,-1002
12:38:50.024,,-53,1,-1002
12:38:50.034,,-54,1,-1001
12:38:50.044,,-52,-2,-1001
12:38:50.054,,-47,-2,-1001
12:38:50.064,,-45,-5,-1002
12:38:50.074,,-42,-6,-1001
12:38:50.084,,-42,-6,-1003
12:38:50.094,,-48,-2,-1002
12:38:50.104,,-50,0,-1001
12:38:50.114,,-49,0,-1002
12:38:50.124,,-49,-1,-1002
12:38:50.134,,-49,-1,-1002
12:38:50.144,,-55,-10,-1003
12:38:50.154,,-63,-21,-1001
12:38:50.164,,-53,13,-1002
12:38:50.174,,-32,12,-1003
12:38:50.184,,-49,0,-1001
12:38:50.194,,-49,0,-1001
12:38:50.204,,-49,-1,-1002
12:38:50.214,,-49,-2,-1003
12:38:50.224,,-50,0,-1002
12:38:50.234,,-49,-1,-1001
12:38:50.244,,-50,0,-1001
12:38:50.254,,-49,-1,-1001
12:38:50.264,,-50,-1,-1001
12:38:50.274,,-48,0,-1002
12:38:50.284,,-49,-1,-1002
12:38:50.294,,-50,0,-1001
12:38:50.304,,-50,0,-1001
12:38:50.314,,-49,0,-1002
12:38:50.324,,-49,0,-1003
12:38:50.334,,-49,0,-1001
12:38:50.344,,-49,-1,-1002
12:38:50.354,,-50,0,-1002
12:38:50.364,,-49,-1,-1001
12:38:50.374,,-50,-1,-1002
12:38:50.384,,-50,-1,-1001
12:38:50.394,,-50,-1,-1002
12:38:50.404,,-49,0,-1001
12:38:50.414,,-49,0,-1002
12:38:50.424,,-50,0,-1001
12:38:50.434,,-49,0,-1001
12:38:50.444,,-50,-1,-1002
12:38:50.454,,-49,0,-1002
12:38:50.464,,-49,0,-1001
12:38:50.474,,-50,0,-1001
12:38:50.484,,-49,0,-1002
12:38:50.494,,-49,-1,-1002
12:38:50.504,,-50,-1,-1002
12:38:50.514,,-49,0,-1003
12:38:50.524,,-48,0,-1002
12:38:50.534,,-49,0,-1001
12:38:50.544,,-49,-1,-1001
12:38:50.554,,-49,-1,-1002
12:38:50.564,,-49,-1,-1001
12:38:50.574,,-49,-1,-1001
12:38:50.584,,-49,-1,-1001
12:38:50.594,,-50,0,-1002
12:38:50.604,,-50,0,-1002
12:38:50.614,,-49,-1,-1001
12:38:50.624,,-50,0,-1001
12:38:50.634,,-48,0,-1001
12:38:50.644,,-49,0,-1001
12:38:50.654,,-50,-1,-1001
12:38:50.664,,-49,-1,-1001
12:38:50.674,,-48,0,-1002
12:38:50.684,,-49,-1,-1002
12:38:50.694,,-49,0,-1002
12:38:50.704,,-50,-1,-1001
12:38:50.714,,-51,0,-1002
12:38:50.724,,-48,-1,-1002
12:38:50.734,,-50,-1,-1002
12:38:50.744,,-50,0,-1002
12:38:50.754,,-49,-1,-1001
12:38:50.764,,-49,0,-1001
12:38:50.774,,-49,0,-1003
12:38:50.784,,-49,-1,-1000
12:38:50.794,,-49,-1,-1002
12:38:50.804,,-49,0,-1001
12:38:50.814,,-49,-1,-1002
12:38:50.824,,-50,-1,-1001
12:38:50.834,,-49,0,-1001
12:38:50.844,,-50,-1,-1000
12:38:50.854,,-49,-1,-1002
12:38:50.864,,-50,-1,-1000
12:38:50.874,,-50,0,-1002
12:38:50.884,,-49,-1,-1002
12:38:50.894,,-49,0,-1001
12:38:50.904,,-48,-1,-1001
12:38:50.914,,-49,-1,-1001
12:38:50.924,,-50,0,-1001
12:38:51.043,,-49,0,-1002
12:38:51.045,,-49,0,-1002
12:38:51.046,,-48,0,-1002
12:38:51.047,,-48,0,-1002
12:38:51.049,,-48,0,-1002
12:38:51.050,,-48,0,-1002
12:38:51.051,,-48,0,-1002
12:38:51.053,,-48,0,-1002
12:38:51.054,,-48,0,-1002
12:38:51.055,,-50,0,-1001
12:38:51.057,,-50,0,-1001
12:38:51.058,,-50,0,-1001
12:38:51.060,,-50,0,-1001
12:38:51.064,,-50,-1,-1003
12:38:51.074,,-49,-1,-1001
12:38:51.084,,-50,-1,-1002
12:38:51.094,,-49,0,-1002
12:38:51.104,,-49,-1,-1003
12:38:51.114,,-50,0,-1002
12:38:51.124,,-50,-1,-1003
12:38:51.134,,-49,0,-1001
12:38:51.144,,-49,0,-1001
12:38:51.154,,-49,-1,-1001
12:38:51.164,,-49,-1,-1001
12:38:51.174,,-48,-1,-1002
12:38:51.184,,-49,0,-1002
12:38:51.194,,-49,-1,-1002
12:38:51.204,,-50,0,-1002
12:38:51.214,,-48,0,-1001
12:38:51.224,,-49,-1,-1001
12:38:51.234,,-50,0,-1001
12:38:51.244,,-49,-1,-1001
12:38:51.254,,-49,0,-1002
12:38:51.264,,-50,-1,-1002
12:38:51.274,,-50,0,-1002
12:38:51.284,,-49,-1,-1002
12:38:51.294,,-50,0,-1002
12:38:51.304,,-49,-1,-1001
12:38:51.314,,-49,-1,-1002
12:38:51.324,,-50,-1,-1002
12:38:51.334,,-49,-1,-1002
12:38:51.344,,-49,0,-1001
12:38:51.354,,-49,-1,-1001
12:38:51.364,,-49,-1,-1001
12:38:51.374,,-51,-1,-1001
12:38:51.384,,-49,-1,-1001
12:38:51.394,,-50,-1,-1002
12:38:51.404,,-49,-1,-1002
12:38:51.414,,-49,0,-1000
12:38:51.424,,-49,0,-1002
12:38:51.434,,-49,0,-1002
12:38:51.444,,-50,0,-1003
12:38:51.454,,-49,-1,-1001
12:38:51.464,,-50,-1,-1003
12:38:51.474,,-49,0,-1002
12:38:51.484,,-49,0,-1001
12:38:51.494,,-49,0,-1002
12:38:51.504,,-50,-1,-1001
12:38:51.514,,-49,0,-1002
12:38:51.524,,-49,0,-1001
12:38:51.534,,-50,0,-1001
12:38:51.544,,-49,-1,-1002
12:38:51.554,,-49,-1,-1002
12:38:51.564,,-49,0,-1001
12:38:51.574,,-50,-1,-1002
12:38:51.584,,-50,0,-1002
12:38:51.594,,-50,0,-1001
12:38:51.604,,-49,-1,-1001
12:38:51.614,,-50,0,-1002
12:38:51.624,,-49,-1,-1001
12:38:51.634,,-51,-1,-1001
12:38:51.644,,-50,0,-1001
12:38:51.654,,-49,0,-1001
12:38:51.664,,-49,0,-1002
12:38:51.674,,-50,0,-1002
12:38:51.684,,-49,0,-1001
12:38:51.694,,-50,0,-1002
12:38:51.704,,-49,-1,-1001
12:38:51.714,,-50,0,-1002
12:38:51.724,,-49,0,-1002
12:38:51.734,,-50,0,-1002
12:38:51.744,,-49,0,-1001
12:38:51.754,,-49,0,-1001
12:38:51.764,,-49,0,-1002
12:38:51.774,,-49,0,-1001
12:38:51.784,,-49,0,-1002
12:38:51.794,,-50,-1,-1001
12:38:51.804,,-50,-1,-1002
12:38:51.814,,-49,-1,-1002
12:38:51.824,,-50,-1,-1002
12:38:51.834,,-50,-1,-1001
12:38:51.844,,-50,-1,-1003
12:38:51.854,,-49,0,-1002
12:38:51.864,,-49,-1,-1003
12:38:51.874,,-50,-1,-1001
12:38:51.884,,-48,0,-1002
12:38:51.894,,-50,0,-1002
12:38:51.904,,-49,0,-1001
12:38:51.914,,-49,-1,-1001
12:38:51.924,,-50,-1,-1001
12:38:51.934,,-49,-1,-1001
12:38:51.944,,-49,-1,-1002
12:38:51.954,,-49,0,-1002
12:38:51.964,,-49,0,-1001
12:38:51.974,,-50,-1,-1001
12:38:51.984,,-50,-1,-1001
12:38:51.994,,-49,-1,-1001
12:38:52.004,,-49,0,-1002
12:38:52.014,,-49,-1,-1003
12:38:52.024,,-50,-1,-1001
12:38:52.034,,-49,0,-1001
12:38:52.044,,-49,0,-1003
12:38:52.054,,-48,-1,-1002
12:38:52.064,,-50,-1,-1002
12:38:52.074,,-49,0,-1002
12:38:52.084,,-50,0,-1002
12:38:52.094,,-50,0,-1002
12:38:52.104,,-49,-1,-1001
12:38:52.114,,-49,-1,-1002
12:38:52.124,,-49,0,-1002
12:38:52.134,,-50,-1,-1002
12:38:52.144,,-50,-2,-1002
12:38:52.154,,-49,0,-1001
12:38:52.164,,-49,0,-1001
12:38:52.174,,-50,-1,-1000
12:38:52.184,,-50,-1,-1002
12:38:52.194,,-50,-1,-1001
12:38:52.204,,-49,-1,-1001
12:38:52.214,,-51,0,-1002
12:38:52.224,,-49,-1,-1002
12:38:52.234,,-49,0,-1002
12:38:52.244,,-49,-1,-1001
12:38:52.254,,-49,-1,-1002
12:38:52.264,,-50,-1,-1001
12:38:52.274,,-49,0,-1001
12:38:52.284,,-49,-1,-1003
12:38:52.294,,-49,-1,-1002
12:38:52.304,,-49,-1,-1002
12:38:52.314,,-49,0,-1000
12:38:52.324,,-49,-1,-1001
12:38:52.334,,-50,-1,-1002
12:38:52.344,,-50,-1,-1002
12:38:52.354,,-50,-1,-1002
12:38:52.364,,-49,-1,-1002
12:38:52.374,,-49,0,-1002
12:38:52.384,,-49,0,-1002
12:38:52.394,,-49,-2,-1001
12:38:52.404,,-50,-1,-1001
12:38:52.414,,-49,-1,-1002
12:38:52.424,,-49,-1,-1002
12:38:52.434,,-50,-1,-1001
12:38:52.444,,-48,0,-1001
12:38:52.454,,-50,0,-1001
12:38:52.464,,-48,-1,-1002
12:38:52.589,,-50,0,-1002
12:38:52.590,,-50,0,-1002
12:38:52.591,,-50,0,-1002
12:38:52.593,,-50,0,-1002
12:38:52.594,,-50,0,-1001
12:38:52.595,,-50,-1,-1001
12:38:52.597,,-50,-1,-1001
12:38:52.598,,-50,-1,-1001
12:38:52.599,,-50,-1,-1001
12:38:52.601,,-50,-1,-1001
12:38:52.602,,-50,-1,-1001
12:38:52.604,,-50,0,-1002
12:38:52.605,,-50,0,-1002
12:38:52.606,,-50,0,-1002
12:38:52.614,,-49,-1,-1000
12:38:52.624,,-50,-1,-1003
12:38:52.634,,-49,0,-1002
12:38:52.644,,-50,0,-1001
12:38:52.654,,-50,-1,-1001
12:38:52.664,,-49,-1,-1001
12:38:52.674,,-49,0,-1002
12:38:52.684,,-49,-1,-1002
12:38:52.694,,-50,-1,-1001
12:38:52.704,,-50,0,-1001
12:38:52.714,,-49,0,-1002
12:38:52.724,,-49,-1,-1002
12:38:52.734,,-49,0,-1002
12:38:52.744,,-50,0,-1001
12:38:52.754,,-50,0,-1002
12:38:52.764,,-50,-1,-1002
12:38:52.774,,-49,0,-1001
12:38:52.784,,-50,0,-1002
12:38:52.794,,-48,-1,-1002
12:38:52.804,,-50,-1,-1001
12:38:52.814,,-49,-1,-1001
12:38:52.824,,-49,-2,-1002
12:38:52.834,,-49,0,-1002
12:38:52.844,,-50,0,-1002
12:38:52.854,,-49,0,-1001
12:38:52.864,,-50,0,-1001
12:38:52.874,,-49,-1,-1002
12:38:52.884,,-49,-1,-1002
12:38:52.894,,-49,0,-1002
12:38:52.904,,-49,0,-1003
12:38:52.914,,-49,-1,-1002
12:38:52.924,,-49,0,-1002
12:38:52.934,,-49,-1,-1002
12:38:52.944,,-49,0,-1002
12:38:52.954,,-49,-1,-1001
12:38:52.964,,-49,0,-1001
12:38:52.974,,-49,0,-1002
12:38:52.984,,-50,0,-1002
12:38:52.994,,-49,-1,-1002
12:38:53.004,,-50,-1,-1002
12:38:53.014,,-50,0,-1002
12:38:53.024,,-50,0,-1001
12:38:53.034,,-50,0,-1001
12:38:53.044,,-49,0,-1002
12:38:53.054,,-49,0,-1001
12:38:53.064,,-49,-1,-1001
12:38:53.074,,-49,0,-1001
12:38:53.084,,-49,-1,-1001
12:38:53.094,,-49,-1,-1001
12:38:53.104,,-50,0,-1002
12:38:53.114,,-49,-1,-1001
12:38:53.124,,-49,-1,-1002
12:38:53.134,,-48,0,-1001
12:38:53.144,,-49,-2,-1002
12:38:53.154,,-50,-1,-1001
12:38:53.164,,-49,0,-1002
12:38:53.174,,-49,0,-1001
12:38:53.184,,-50,0,-1001
12:38:53.194,,-48,-1,-1002
12:38:53.204,,-50,0,-1001
12:38:53.214,,-49,0,-1002
12:38:53.224,,-49,-1,-1002
12:38:53.234,,-50,0,-1003
12:38:53.244,,-50,-1,-1000
12:38:53.254,,-49,0,-1002
12:38:53.264,,-49,-1,-1002
12:38:53.274,,-49,0,-1001
12:38:53.284,,-49,0,-1001
12:38:53.294,,-49,-1,-1003
12:38:53.304,,-48,-1,-1002
12:38:53.314,,-50,0,-1002
12:38:53.324,,-49,-1,-1002
12:38:53.334,,-49,-1,-1000
12:38:53.344,,-50,0,-1002
12:38:53.354,,-50,0,-1002
12:38:53.364,,-49,-1,-1002
12:38:53.374,,-50,-1,-1002
12:38:53.384,,-49,-1,-1002
12:38:53.394,,-50,-1,-1002
12:38:53.404,,-51,0,-1001
12:38:53.414,,-49,0,-1002
12:38:53.424,,-50,-1,-1002
12:38:53.434,,-50,-1,-1002
12:38:53.444,,-49,-1,-1002
12:38:53.454,,-49,0,-1002
12:38:53.464,,-49,-1,-1002
12:38:53.474,,-49,-1,-1001
12:38:53.484,,-49,-1,-1002
12:38:53.494,,-50,0,-1002
12:38:53.504,,-50,-1,-1001
12:38:53.514,,-50,0,-1002
12:38:53.524,,-49,0,-1001
12:38:53.534,,-48,-1,-1002
12:38:53.544,,-49,0,-1001
12:38:53.554,,-49,-1,-1002
12:38:53.564,,-50,-1,-1001
12:38:53.574,,-49,0,-1002
12:38:53.584,,-49,0,-1002
12:38:53.594,,-49,0,-1002
12:38:53.604,,-49,0,-1002
12:38:53.614,,-49,-1,-1002
12:38:53.624,,-49,-1,-1002
12:38:53.634,,-49,-1,-1001
12:38:53.644,,-50,-1,-1002
12:38:53.654,,-50,-1,-1001
12:38:53.664,,-49,0,-1001
12:38:53.674,,-49,0,-1001
12:38:53.684,,-50,0,-1001
12:38:53.694,,-49,0,-1002
12:38:53.704,,-49,0,-1002
12:38:53.714,,-49,0,-1002
12:38:53.724,,-49,-1,-1000
12:38:53.734,,-49,-1,-1003
12:38:53.744,,-50,0,-1001
12:38:53.754,,-49,0,-1001
12:38:53.764,,-50,-1,-1002
12:38:53.774,,-50,0,-1002
12:38:53.784,,-49,0,-1001
12:38:53.794,,-49,0,-1002
12:38:53.804,,-48,-1,-1002
12:38:53.814,,-48,0,-1001
12:38:53.824,,-50,0,-1001
12:38:53.834,,-49,-1,-1001
12:38:53.844,,-49,-1,-1001
12:38:53.854,,-49,0,-1001
12:38:53.864,,-49,0,-1001
12:38:53.874,,-49,0,-1001
12:38:53.884,,-49,-1,-1002
12:38:53.894,,-49,0,-1001
12:38:53.904,,-50,0,-1002
12:38:53.914,,-49,0,-1002
12:38:53.924,,-49,-1,-1001
12:38:53.934,,-49,0,-1001
12:38:53.944,,-50,-1,-1002
12:38:53.954,,-49,0,-1002
12:38:53.964,,-49,0,-1001
12:38:53.974,,-49,0,-1002
12:38:53.984,,-49,-1,-1001
12:38:53.994,,-49,0,-1003
12:38:54.004,,-49,-1,-1002
12:38:54.014,,-49,-1,-1002
12:38:54.133,,-15,-79,-1004
12:38:54.135,,-72,-70,-1000
12:38:54.136,,-72,-70,-1000
12:38:54.137,,-72,-70,-1000
12:38:54.139,,-72,-70,-1000
12:38:54.140,,-72,-70,-1000
12:38:54.142,,-72,-70,-1000
12:38:54.143,,-72,-70,-1000
12:38:54.144,,-31,-24,-1002
12:38:54.146,,-31,-24,-1002
12:38:54.147,,-31,-24,-1002
12:38:54.148,,-31,-24,-1002
12:38:54.150,,-31,-24,-1002
12:38:54.154,,-42,13,-1002
12:38:54.164,,-73,10,-1001
12:38:54.174,,-110,24,-999
12:38:54.184,,-154,123,-996
12:38:54.194,,-175,126,-997
12:38:54.204,,-141,40,-998
12:38:54.214,,-31,-16,-999
12:38:54.224,,-53,1,-1006
12:38:54.234,,-68,20,-1090
12:38:54.244,,-56,-28,-997
12:38:54.254,,-39,-18,-1069
12:38:54.264,,-108,14,-1048
12:38:54.274,,-108,30,-944
12:38:54.284,,-67,52,-986
12:38:54.294,,-70,43,-989
12:38:54.304,,-89,39,-968
12:38:54.314,,-93,26,-1002
12:38:54.324,,-42,27,-1015
12:38:54.334,,-19,-1,-1001
12:38:54.344,,-17,-19,-1030
12:38:54.354,,-16,-1,-1046
12:38:54.364,,-3,0,-1029
12:38:54.374,,16,-17,-1025
12:38:54.384,,9,-2,-1062
12:38:54.394,,-12,31,-1022
12:38:54.404,,-67,17,-983
12:38:54.414,,-181,3,-1014
12:38:54.424,,-263,26,-1065
12:38:54.434,,-283,11,-1092
12:38:54.444,,-281,-29,-1108
12:38:54.454,,-241,-58,-1143
12:38:54.464,,-151,-77,-1070
12:38:54.474,,-69,-45,-955
12:38:54.484,,-7,40,-954
12:38:54.494,,-19,89,-976
12:38:54.504,,-103,39,-963
12:38:54.514,,-210,32,-1018
12:38:54.524,,-278,39,-986
12:38:54.534,,-376,82,-978
12:38:54.544,,-371,105,-965
12:38:54.554,,-340,61,-968
12:38:54.564,,-316,-28,-964
12:38:54.574,,-279,-135,-975
12:38:54.584,,-170,-181,-975
12:38:54.594,,-50,-126,-977
12:38:54.604,,14,-142,-990
12:38:54.614,,17,-179,-1011
12:38:54.624,,-20,-196,-1025
12:38:54.634,,-75,-155,-1055
12:38:54.644,,-148,-101,-1070
12:38:54.654,,-331,-29,-1048
12:38:54.664,,-338,33,-1048
12:38:54.674,,-305,43,-1026
12:38:54.684,,-204,22,-983
12:38:54.693,,-132,0,-953
12:38:54.704,,-122,-53,-926
12:38:54.714,,-115,-44,-928
12:38:54.723,,-126,-48,-954
12:38:54.734,,-140,-110,-938
12:38:54.744,,-128,-159,-949
12:38:54.753,,-103,-155,-971
12:38:54.764,,-56,-131,-1005
12:38:54.774,,6,-111,-1028
12:38:54.783,,62,-94,-1043
12:38:54.794,,67,-76,-1040
12:38:54.804,,67,-67,-1054
12:38:54.813,,54,-19,-1089
12:38:54.823,,30,26,-1075
12:38:54.834,,2,10,-1022
12:38:54.843,,-1,-53,-1018
12:38:54.853,,61,-106,-1013
12:38:54.863,,93,-113,-1026
12:38:54.873,,125,-104,-1027
12:38:54.883,,192,-134,-981
12:38:54.893,,187,-136,-1004
12:38:54.903,,198,-137,-973
12:38:54.913,,201,38,-945
12:38:54.923,,189,83,-970
12:38:54.933,,177,16,-992
12:38:54.943,,165,-111,-982
12:38:54.953,,159,-175,-973
12:38:54.963,,120,-216,-992
12:38:54.973,,125,-206,-996
12:38:54.983,,188,-159,-991
12:38:54.993,,289,-158,-983
12:38:55.003,,344,-153,-1002
12:38:55.013,,212,-137,-925
12:38:55.023,,138,-80,-1112
12:38:55.033,,355,-39,-954
12:38:55.043,,310,-204,-727
12:38:55.053,,204,-277,-756
12:38:55.063,,106,-265,-707
12:38:55.073,,129,-290,-699
12:38:55.083,,132,-312,-814
12:38:55.093,,75,-269,-907
12:38:55.103,,120,-254,-887
12:38:55.113,,137,-209,-956
12:38:55.123,,157,-152,-983
12:38:55.133,,174,-111,-1016
12:38:55.143,,269,-73,-1011
12:38:55.153,,366,-68,-938
12:38:55.163,,366,-88,-887
12:38:55.173,,308,-139,-872
12:38:55.183,,242,-177,-880
12:38:55.193,,-181,-136,-851
12:38:55.203,,-11,-161,-964
12:38:55.213,,256,-106,-991
12:38:55.223,,397,-75,-1006
12:38:55.233,,369,-119,-976
12:38:55.243,,281,-130,-1002
12:38:55.253,,258,-119,-1001
12:38:55.263,,273,-122,-955
12:38:55.273,,386,-61,-856
12:38:55.283,,376,-13,-790
12:38:55.293,,389,22,-838
12:38:55.303,,398,28,-970
12:38:55.313,,341,-25,-1023
12:38:55.323,,214,-57,-1016
12:38:55.333,,122,-70,-974
12:38:55.343,,165,-135,-895
12:38:55.353,,80,-193,-1010
12:38:55.363,,238,-66,-1007
12:38:55.373,,394,44,-960
12:38:55.383,,433,-46,-808
12:38:55.393,,442,-139,-709
12:38:55.403,,289,-13,-811
12:38:55.413,,119,39,-812
12:38:55.423,,-12,-153,-765
12:38:55.433,,-88,-146,-783
12:38:55.443,,-104,-62,-895
12:38:55.453,,-82,-41,-992
12:38:55.463,,-38,-151,-1090
12:38:55.473,,62,-201,-1054
12:38:55.483,,137,-193,-1018
12:38:55.493,,168,-211,-1034
12:38:55.503,,221,-247,-1093
12:38:55.627,,227,-97,-946
12:38:55.628,,206,22,-869
12:38:55.629,,206,22,-869
12:38:55.631,,206,22,-869
12:38:55.632,,206,22,-869
12:38:55.633,,206,22,-869
12:38:55.635,,206,22,-869
12:38:55.636,,206,22,-869
12:38:55.638,,172,142,-882
12:38:55.639,,172,142,-882
12:38:55.640,,172,142,-882
12:38:55.642,,172,142,-882
12:38:55.643,,172,142,-882
12:38:55.644,,172,142,-882
12:38:55.653,,139,153,-943
12:38:55.663,,199,0,-970
12:38:55.673,,233,33,-978
12:38:55.683,,140,140,-985
12:38:55.693,,211,123,-983
12:38:55.703,,170,79,-984
12:38:55.713,,66,92,-957
12:38:55.723,,51,98,-919
12:38:55.733,,203,84,-937
12:38:55.743,,119,52,-944
12:38:55.753,,193,63,-945
12:38:55.763,,179,51,-973
12:38:55.773,,205,77,-999
12:38:55.783,,95,83,-1047
12:38:55.793,,145,107,-1000
12:38:55.803,,313,62,-1038
12:38:55.813,,228,4,-1013
12:38:55.823,,216,15,-1008
12:38:55.833,,259,55,-1020
12:38:55.843,,265,50,-1059
12:38:55.853,,235,47,-1078
12:38:55.863,,205,63,-1063
12:38:55.873,,173,40,-1021
12:38:55.883,,149,-6,-951
12:38:55.893,,96,-13,-906
12:38:55.903,,-77,4,-941
12:38:55.913,,-158,123,-988
12:38:55.923,,-70,152,-981
12:38:55.933,,72,33,-1056
12:38:55.943,,135,49,-1119
12:38:55.953,,63,117,-1113
12:38:55.963,,42,184,-1101
12:38:55.973,,54,200,-1086
12:38:55.983,,70,183,-1076
12:38:55.993,,91,174,-1081
12:38:56.003,,71,180,-1070
12:38:56.013,,89,157,-1040
12:38:56.023,,131,131,-1045
12:38:56.033,,161,77,-1065
12:38:56.043,,153,64,-1094
12:38:56.053,,90,65,-1094
12:38:56.063,,132,70,-980
12:38:56.073,,100,66,-928
12:38:56.083,,36,44,-921
12:38:56.093,,18,77,-901
12:38:56.103,,68,130,-904
12:38:56.113,,116,146,-967
12:38:56.123,,98,132,-1000
12:38:56.133,,89,104,-997
12:38:56.143,,135,82,-966
12:38:56.153,,156,106,-974
12:38:56.163,,164,130,-984
12:38:56.173,,153,112,-994
12:38:56.183,,172,76,-996
12:38:56.193,,185,123,-928
12:38:56.203,,165,111,-953
12:38:56.213,,141,86,-977
12:38:56.223,,164,76,-984
12:38:56.233,,196,63,-993
12:38:56.243,,209,49,-1030
12:38:56.253,,164,111,-1049
12:38:56.263,,209,136,-1050
12:38:56.273,,241,147,-1002
12:38:56.283,,115,175,-1011
12:38:56.293,,144,203,-1035
12:38:56.303,,214,206,-1039
12:38:56.313,,232,205,-1047
12:38:56.323,,139,156,-1040
12:38:56.333,,129,168,-1009
12:38:56.343,,189,177,-1009
12:38:56.353,,172,188,-987
12:38:56.363,,136,195,-1001
12:38:56.373,,183,192,-1055
12:38:56.383,,173,160,-1044
12:38:56.393,,86,171,-972
12:38:56.403,,39,196,-924
12:38:56.413,,68,183,-963
12:38:56.423,,109,168,-974
12:38:56.433,,150,158,-1007
12:38:56.443,,162,105,-956
12:38:56.453,,14,215,-1025
12:38:56.463,,39,139,-950
12:38:56.473,,36,164,-1052
12:38:56.483,,44,144,-1021
12:38:56.493,,81,113,-1023
12:38:56.503,,72,130,-998
12:38:56.513,,56,155,-1046
12:38:56.523,,80,143,-1067
12:38:56.533,,104,94,-1058
12:38:56.543,,102,76,-1062
12:38:56.553,,96,97,-1068
12:38:56.563,,75,115,-1065
12:38:56.573,,33,145,-1018
12:38:56.583,,49,131,-1036
12:38:56.593,,72,118,-1062
12:38:56.603,,102,103,-1080
12:38:56.613,,107,101,-1087
12:38:56.623,,94,104,-1076
12:38:56.633,,78,109,-1065
12:38:56.643,,62,113,-1052
12:38:56.653,,36,135,-1037
12:38:56.663,,21,133,-1024
12:38:56.673,,18,119,-1012
12:38:56.683,,24,114,-1006
12:38:56.693,,28,126,-1005
12:38:56.703,,34,155,-995
12:38:56.713,,14,163,-970
12:38:56.723,,6,162,-958
12:38:56.733,,0,144,-956
12:38:56.743,,0,129,-967
12:38:56.753,,4,115,-975
12:38:56.763,,27,108,-999
12:38:56.773,,34,107,-1011
12:38:56.783,,33,107,-1004
12:38:56.793,,38,100,-994
12:38:56.803,,35,102,-987
12:38:56.813,,33,102,-981
12:38:56.823,,38,101,-986
12:38:56.833,,23,107,-976
12:38:56.843,,15,124,-956
12:38:56.853,,21,126,-961
12:38:56.863,,25,132,-972
12:38:56.873,,37,125,-988
12:38:56.883,,49,108,-993
12:38:56.893,,43,96,-988
12:38:56.903,,31,98,-988
12:38:56.913,,26,108,-989
12:38:56.923,,22,113,-994
12:38:56.933,,23,117,-1000
12:38:56.943,,32,119,-1000
12:38:56.953,,39,121,-1001
12:38:56.963,,44,135,-1006
12:38:56.973,,41,118,-1007
12:38:56.983,,29,104,-1003
12:38:56.993,,27,98,-1005
12:38:57.003,,18,107,-1002
12:38:57.013,,21,100,-1000
12:38:57.023,,29,96,-1008
12:38:57.033,,31,98,-1017
12:38:57.151,,20,96,-996
12:38:57.153,,20,96,-996
12:38:57.154,,20,96,-996
12:38:57.156,,20,96,-996
12:38:57.157,,20,96,-996
12:38:57.158,,24,103,-990
12:38:57.160,,24,103,-990
12:38:57.161,,24,103,-990
12:38:57.162,,24,103,-990
12:38:57.164,,24,103,-990
12:38:57.165,,24,103,-990
12:38:57.166,,24,103,-990
12:38:57.168,,32,110,-988
12:38:57.173,,32,110,-988
12:38:57.183,,32,103,-984
12:38:57.193,,39,98,-991
12:38:57.203,,45,103,-998
12:38:57.213,,59,99,-997
12:38:57.223,,40,98,-987
12:38:57.233,,34,101,-978
12:38:57.243,,36,108,-979
12:38:57.253,,30,98,-976
12:38:57.263,,17,94,-975
12:38:57.273,,29,98,-980
12:38:57.283,,39,103,-986
12:38:57.293,,43,101,-992
12:38:57.303,,45,103,-1004
12:38:57.313,,60,100,-1012
12:38:57.323,,64,109,-1018
12:38:57.333,,47,118,-1016
12:38:57.343,,43,127,-1006
12:38:57.353,,45,130,-1004
12:38:57.363,,49,112,-1005
12:38:57.373,,52,95,-993
12:38:57.383,,39,101,-990
12:38:57.393,,25,88,-987
12:38:57.403,,28,95,-983
12:38:57.413,,41,113,-981
12:38:57.423,,43,119,-978
12:38:57.433,,48,122,-983
12:38:57.443,,41,123,-979
12:38:57.453,,32,134,-973
12:38:57.463,,34,132,-966
12:38:57.473,,39,139,-968
12:38:57.483,,37,136,-981
12:38:57.493,,49,127,-997
12:38:57.503,,50,130,-1010
12:38:57.513,,43,117,-1017
12:38:57.523,,43,110,-1022
12:38:57.533,,35,119,-1021
12:38:57.543,,29,134,-1018
12:38:57.553,,34,139,-1013
12:38:57.563,,37,142,-1008
12:38:57.573,,38,128,-1024
12:38:57.583,,52,103,-1031
12:38:57.593,,54,105,-1032
12:38:57.603,,39,112,-1008
12:38:57.613,,48,112,-1005
12:38:57.623,,44,114,-1001
12:38:57.633,,29,106,-988
12:38:57.643,,21,102,-980
12:38:57.653,,14,106,-975
12:38:57.663,,17,111,-970
12:38:57.673,,29,109,-971
12:38:57.683,,37,117,-983
12:38:57.693,,43,111,-993
12:38:57.703,,35,105,-996
12:38:57.713,,40,114,-991
12:38:57.723,,38,109,-993
12:38:57.733,,44,102,-984
12:38:57.743,,40,110,-987
12:38:57.753,,55,113,-980
12:38:57.763,,49,110,-979
12:38:57.773,,48,109,-988
12:38:57.783,,50,111,-996
12:38:57.793,,77,106,-997
12:38:57.803,,63,90,-993
12:38:57.813,,37,101,-997
12:38:57.823,,31,106,-993
12:38:57.833,,40,97,-986
12:38:57.843,,57,98,-983
12:38:57.853,,56,109,-998
12:38:57.863,,43,88,-989
12:38:57.873,,63,122,-995
12:38:57.883,,62,113,-995
12:38:57.893,,81,104,-1005
12:38:57.903,,83,90,-1013
12:38:57.913,,77,88,-1022
12:38:57.923,,17,36,-1009
12:38:57.933,,71,92,-1012
12:38:57.943,,65,103,-1021
12:38:57.953,,87,91,-1010
12:38:57.963,,94,109,-1012
12:38:57.973,,89,110,-1012
12:38:57.983,,96,108,-1019
12:38:57.993,,63,97,-1008
12:38:58.003,,70,98,-991
12:38:58.013,,59,97,-972
12:38:58.023,,24,97,-966
12:38:58.033,,13,97,-966
12:38:58.043,,25,98,-970
12:38:58.053,,29,93,-973
12:38:58.063,,38,95,-983
12:38:58.073,,43,114,-998
12:38:58.083,,62,123,-1000
12:38:58.093,,90,101,-983
12:38:58.103,,102,79,-996
12:38:58.113,,57,61,-986
12:38:58.123,,41,69,-987
12:38:58.133,,36,70,-990
12:38:58.143,,35,66,-991
12:38:58.153,,51,81,-991
12:38:58.163,,53,94,-991
12:38:58.173,,47,87,-996
12:38:58.183,,55,94,-1013
12:38:58.193,,54,96,-994
12:38:58.203,,52,99,-986
12:38:58.213,,51,90,-993
12:38:58.223,,47,80,-1000
12:38:58.233,,59,85,-1000
12:38:58.243,,63,53,-1031
12:38:58.253,,53,45,-1019
12:38:58.263,,42,39,-1001
12:38:58.273,,40,57,-994
12:38:58.283,,40,94,-984
12:38:58.293,,58,109,-975
12:38:58.303,,44,104,-996
12:38:58.313,,23,88,-996
12:38:58.323,,37,81,-1011
12:38:58.333,,54,88,-1020
12:38:58.343,,70,96,-1020
12:38:58.353,,73,115,-1014
12:38:58.363,,63,122,-1015
12:38:58.373,,62,102,-988
12:38:58.383,,42,83,-990
12:38:58.393,,40,78,-992
12:38:58.403,,44,58,-994
12:38:58.413,,34,61,-992
12:38:58.423,,69,47,-999
12:38:58.433,,59,32,-1009
12:38:58.443,,93,52,-1026
12:38:58.453,,85,65,-1005
12:38:58.463,,81,63,-1001
12:38:58.473,,52,74,-984
12:38:58.483,,29,76,-960
12:38:58.493,,53,71,-963
12:38:58.503,,59,61,-1005
12:38:58.513,,64,70,-1014
12:38:58.523,,77,78,-1011
12:38:58.533,,94,80,-1010
12:38:58.543,,87,75,-1013
12:38:58.553,,63,72,-1008
12:38:58.563,,62,71,-1001
12:38:58.573,,56,73,-1001
12:38:58.583,,65,78,-989
12:38:58.593,,67,77,-993
12:38:58.603,,76,82,-999
12:38:58.613,,80,83,-999
12:38:58.623,,69,73,-1000
12:38:58.746,,21,58,-1001
12:38:58.747,,21,58,-1001
12:38:58.748,,21,58,-1001
12:38:58.750,,21,58,-1001
12:38:58.751,,21,58,-1001
12:38:58.752,,21,58,-1001
12:38:58.754,,28,59,-1002
12:38:58.755,,28,59,-1002
12:38:58.757,,28,59,-1002
12:38:58.758,,28,59,-1002
12:38:58.759,,28,59,-1002
12:38:58.761,,28,59,-1002
12:38:58.762,,28,59,-1002
12:38:58.763,,51,64,-1000
12:38:58.773,,51,61,-1003
12:38:58.783,,48,47,-1008
12:38:58.793,,65,36,-1007
12:38:58.803,,64,38,-1014
12:38:58.813,,59,43,-1022
12:38:58.823,,37,37,-1027
12:38:58.833,,6,38,-1011
12:38:58.843,,-3,39,-1000
12:38:58.853,,-5,12,-1012
12:38:58.863,,-20,-49,-1039
12:38:58.873,,0,-67,-1046
12:38:58.883,,34,12,-1040
12:38:58.893,,23,63,-1019
12:38:58.903,,6,100,-1000
12:38:58.913,,6,127,-987
12:38:58.923,,19,138,-987
12:38:58.933,,13,114,-992
12:38:58.943,,4,73,-988
12:38:58.953,,-6,45,-968
12:38:58.963,,-10,32,-950
12:38:58.973,,-13,17,-936
12:38:58.983,,-10,8,-940
12:38:58.993,,-17,28,-949
12:38:59.003,,-19,49,-954
12:38:59.013,,-10,66,-945
12:38:59.023,,-15,56,-941
12:38:59.033,,-19,43,-939
12:38:59.043,,-18,26,-930
12:38:59.053,,-13,2,-939
12:38:59.063,,3,-11,-964
12:38:59.073,,5,-12,-977
12:38:59.083,,-1,-7,-981
12:38:59.093,,-10,15,-984
12:38:59.103,,-2,43,-989
12:38:59.113,,13,60,-990
12:38:59.123,,32,69,-986
12:38:59.133,,30,65,-986
12:38:59.143,,-41,44,-961
12:38:59.153,,-12,40,-982
12:38:59.163,,5,47,-981
12:38:59.173,,23,43,-991
12:38:59.183,,63,30,-1024
12:38:59.193,,63,8,-1039
12:38:59.203,,28,-14,-1062
12:38:59.213,,-20,-21,-1069
12:38:59.223,,-134,-16,-1028
12:38:59.233,,-19,27,-1095
12:38:59.243,,37,50,-1087
12:38:59.253,,55,56,-1058
12:38:59.263,,35,58,-1039
12:38:59.273,,35,67,-1018
12:38:59.283,,-12,58,-1027
12:38:59.293,,-55,82,-1026
12:38:59.303,,-63,99,-1035
12:38:59.313,,-83,140,-993
12:38:59.323,,-60,172,-981
12:38:59.333,,-47,193,-971
12:38:59.343,,-58,203,-963
12:38:59.353,,-93,189,-951
12:38:59.363,,-84,180,-948
12:38:59.373,,-48,155,-962
12:38:59.383,,-23,120,-970
12:38:59.393,,12,80,-1015
12:38:59.403,,35,33,-1012
12:38:59.413,,29,43,-1019
12:38:59.423,,12,88,-1020
12:38:59.433,,-21,128,-1015
12:38:59.443,,-35,166,-1016
12:38:59.453,,-27,191,-1007
12:38:59.463,,-22,203,-992
12:38:59.473,,-19,201,-1001
12:38:59.483,,-10,163,-1013
12:38:59.493,,-6,112,-1022
12:38:59.503,,10,68,-1054
12:38:59.513,,33,48,-1103
12:38:59.523,,38,54,-1185
12:38:59.533,,-28,74,-1219
12:38:59.543,,-13,90,-1226
12:38:59.553,,33,109,-1202
12:38:59.563,,77,136,-1148
12:38:59.573,,94,153,-1056
12:38:59.583,,91,144,-971
12:38:59.593,,22,110,-923
12:38:59.603,,-76,96,-902
12:38:59.613,,-121,87,-895
12:38:59.623,,-91,113,-915
12:38:59.633,,-30,166,-955
12:38:59.643,,26,188,-978
12:38:59.653,,50,133,-946
12:38:59.663,,-18,123,-869
12:38:59.673,,-38,133,-870
12:38:59.683,,-79,149,-914
12:38:59.693,,-56,181,-865
12:38:59.703,,-17,207,-850
12:38:59.713,,-3,181,-877
12:38:59.723,,-24,207,-849
12:38:59.733,,19,142,-871
12:38:59.743,,44,58,-849
12:38:59.753,,76,7,-848
12:38:59.763,,24,32,-823
12:38:59.773,,-3,67,-793
12:38:59.783,,-47,196,-774
12:38:59.793,,-43,188,-820
12:38:59.803,,14,154,-900
12:38:59.813,,73,116,-946
12:38:59.823,,67,136,-928
12:38:59.833,,53,146,-911
12:38:59.843,,48,144,-903
12:38:59.853,,38,139,-907
12:38:59.863,,37,119,-935
12:38:59.873,,66,109,-984
12:38:59.883,,84,101,-1026
12:38:59.893,,98,80,-1074
12:38:59.903,,102,50,-1156
12:38:59.913,,120,41,-1220
12:38:59.923,,167,54,-1194
12:38:59.933,,171,56,-1155
12:38:59.943,,170,60,-1155
12:38:59.953,,164,69,-1140
12:38:59.963,,164,27,-1144
12:38:59.973,,171,-23,-1155
12:38:59.983,,214,-58,-1193
12:38:59.993,,204,-46,-1188
12:39:00.003,,209,-60,-1159
12:39:00.013,,205,-39,-1120
12:39:00.023,,211,4,-1095
12:39:00.033,,208,70,-1026
12:39:00.043,,174,86,-934
12:39:00.053,,165,57,-874
12:39:00.063,,161,10,-856
12:39:00.073,,166,11,-878
12:39:00.083,,131,64,-917
12:39:00.093,,138,95,-936
12:39:00.103,,166,93,-934
12:39:00.113,,163,107,-926
12:39:00.123,,143,101,-954
12:39:00.133,,131,105,-985
12:39:00.143,,145,110,-999
12:39:00.153,,143,105,-1021
12:39:00.163,,133,75,-1041
12:39:00.173,,94,16,-1029
12:39:00.290,,16,2,-1026
12:39:00.291,,16,2,-1026
12:39:00.293,,16,2,-1023
12:39:00.294,,24,-4,-1023
12:39:00.296,,24,-4,-1023
12:39:00.297,,24,-4,-1023
12:39:00.298,,24,-4,-1023
12:39:00.300,,24,-4,-1023
12:39:00.301,,24,-4,-1023
12:39:00.302,,38,0,-1020
12:39:00.304,,38,0,-1020
12:39:00.305,,38,0,-1020
12:39:00.306,,38,0,-1020
12:39:00.313,,34,7,-1009
12:39:00.323,,19,14,-1016
12:39:00.333,,10,8,-1038
12:39:00.343,,3,-13,-1063
12:39:00.353,,14,-28,-1102
12:39:00.363,,24,-19,-1125
12:39:00.373,,26,-38,-1124
12:39:00.383,,11,-48,-1112
12:39:00.393,,16,-55,-1083
12:39:00.403,,40,-53,-1033
12:39:00.413,,31,-22,-994
12:39:00.423,,33,-7,-980
12:39:00.433,,42,-15,-967
12:39:00.443,,45,-4,-939
12:39:00.453,,58,16,-905
12:39:00.463,,62,-55,-962
12:39:00.473,,42,-44,-971
12:39:00.483,,56,19,-1094
12:39:00.493,,43,-20,-1036
12:39:00.503,,44,-39,-924
12:39:00.513,,53,-6,-876
12:39:00.523,,54,46,-889
12:39:00.533,,38,85,-836
12:39:00.543,,92,89,-907
12:39:00.553,,168,208,-937
12:39:00.563,,177,203,-953
12:39:00.573,,146,148,-1052
12:39:00.583,,136,139,-1092
12:39:00.593,,145,120,-1083
12:39:00.603,,125,109,-1065
12:39:00.613,,106,101,-1024
12:39:00.623,,95,97,-991
12:39:00.633,,76,95,-978
12:39:00.643,,71,87,-971
12:39:00.653,,49,87,-986
12:39:00.663,,55,86,-990
12:39:00.673,,66,92,-1011
12:39:00.683,,75,77,-1029
12:39:00.693,,78,65,-1010
12:39:00.703,,58,55,-990
12:39:00.713,,55,54,-982
12:39:00.723,,61,45,-990
12:39:00.733,,66,40,-994
12:39:00.743,,69,47,-989
12:39:00.753,,67,68,-992
12:39:00.763,,66,93,-1004
12:39:00.773,,76,98,-1025
12:39:00.783,,74,82,-1027
12:39:00.793,,68,66,-1016
12:39:00.803,,54,58,-994
12:39:00.813,,51,61,-976
12:39:00.823,,55,49,-998
12:39:00.833,,44,39,-992
12:39:00.843,,49,51,-994
12:39:00.853,,51,61,-995
12:39:00.863,,49,74,-1002
12:39:00.873,,53,76,-1015
12:39:00.883,,56,69,-1022
12:39:00.893,,48,55,-1011
12:39:00.903,,44,51,-1001
12:39:00.913,,42,55,-997
12:39:00.923,,46,60,-997
12:39:00.933,,49,64,-990
12:39:00.943,,46,67,-988
12:39:00.953,,50,61,-993
12:39:00.963,,49,53,-1001
12:39:00.973,,47,43,-1012
12:39:00.983,,48,46,-1023
12:39:00.993,,52,55,-1018
12:39:01.003,,53,58,-1008
12:39:01.013,,52,58,-996
12:39:01.023,,50,59,-989
12:39:01.033,,51,63,-989
12:39:01.043,,51,67,-995
12:39:01.053,,52,76,-996
12:39:01.063,,52,75,-996
12:39:01.073,,50,67,-1004
12:39:01.083,,48,59,-1020
12:39:01.093,,45,58,-1026
12:39:01.103,,50,62,-1019
12:39:01.113,,52,66,-1009
12:39:01.123,,54,70,-1002
12:39:01.133,,52,74,-998
12:39:01.143,,54,77,-994
12:39:01.153,,53,73,-992
12:39:01.163,,50,71,-994
12:39:01.173,,52,78,-999
12:39:01.183,,54,79,-1011
12:39:01.193,,57,66,-1023
12:39:01.203,,55,62,-1011
12:39:01.213,,57,60,-997
12:39:01.223,,60,58,-987
12:39:01.233,,65,53,-977
12:39:01.243,,70,54,-976
12:39:01.253,,74,54,-982
12:39:01.263,,85,51,-988
12:39:01.273,,76,43,-981
12:39:01.283,,79,39,-974
12:39:01.293,,121,-3,-991
12:39:01.303,,92,12,-987
12:39:01.313,,94,20,-980
12:39:01.323,,92,34,-959
12:39:01.333,,87,38,-969
12:39:01.343,,81,45,-989
12:39:01.353,,75,64,-997
12:39:01.363,,75,76,-995
12:39:01.373,,66,75,-991
12:39:01.383,,58,75,-999
12:39:01.393,,49,74,-1006
12:39:01.403,,50,81,-1013
12:39:01.413,,40,78,-1014
12:39:01.423,,40,83,-1022
12:39:01.433,,42,80,-1012
12:39:01.443,,43,79,-1012
12:39:01.453,,42,74,-1010
12:39:01.463,,46,70,-1013
12:39:01.473,,50,66,-1015
12:39:01.483,,52,68,-1019
12:39:01.493,,58,72,-1021
12:39:01.503,,59,66,-1021
12:39:01.513,,57,59,-1017
12:39:01.523,,55,57,-1011
12:39:01.533,,55,60,-1006
12:39:01.543,,55,61,-1001
12:39:01.553,,54,60,-995
12:39:01.563,,55,61,-997
12:39:01.573,,55,61,-998
12:39:01.583,,55,58,-999
12:39:01.593,,55,58,-1002
12:39:01.603,,58,60,-1001
12:39:01.613,,59,60,-1001
12:39:01.623,,60,58,-998
12:39:01.633,,62,57,-997
12:39:01.643,,63,57,-994
12:39:01.653,,63,57,-989
12:39:01.663,,66,54,-982
12:39:01.673,,66,50,-985
12:39:01.683,,67,49,-989
12:39:01.693,,68,48,-994
12:39:01.703,,71,47,-1001
12:39:01.713,,74,43,-997
12:39:01.723,,74,45,-991
12:39:01.733,,74,51,-991
12:39:01.743,,77,52,-992
12:39:01.753,,77,53,-995
12:39:01.763,,75,56,-998
12:39:01.773,,79,61,-994
12:39:01.897,,67,60,-1005
12:39:01.899,,67,61,-1005
12:39:01.900,,67,61,-1005
12:39:01.902,,67,61,-1005
12:39:01.903,,67,61,-1005
12:39:01.904,,67,61,-1005
12:39:01.906,,67,61,-1005
12:39:01.907,,64,63,-998
12:39:01.908,,64,63,-998
12:39:01.910,,64,63,-998
12:39:01.911,,64,63,-998
12:39:01.912,,64,63,-998
12:39:01.914,,64,63,-998
12:39:01.915,,64,63,-998
12:39:01.923,,61,64,-995
12:39:01.933,,63,67,-997
12:39:01.943,,65,67,-998
12:39:01.953,,62,67,-995
12:39:01.963,,60,69,-998
12:39:01.973,,60,69,-1001
12:39:01.983,,61,69,-1004
12:39:01.993,,63,70,-1008
12:39:02.003,,65,71,-1012
12:39:02.013,,66,67,-1009
12:39:02.023,,63,63,-1007
12:39:02.033,,66,65,-1006
12:39:02.043,,66,66,-1003
12:39:02.053,,64,67,-995
12:39:02.063,,64,68,-991
12:39:02.073,,65,67,-991
12:39:02.083,,65,63,-993
12:39:02.093,,65,60,-998
12:39:02.103,,67,58,-997
12:39:02.113,,69,61,-998
12:39:02.123,,69,64,-999
12:39:02.133,,73,64,-1000
12:39:02.143,,73,60,-997
12:39:02.153,,72,56,-993
12:39:02.163,,74,55,-995
12:39:02.173,,74,52,-995
12:39:02.183,,76,58,-996
12:39:02.193,,79,61,-994
12:39:02.203,,76,60,-988
12:39:02.213,,74,59,-989
12:39:02.223,,74,56,-996
12:39:02.233,,71,58,-997
12:39:02.243,,73,61,-998
12:39:02.253,,73,58,-997
12:39:02.263,,69,55,-994
12:39:02.273,,70,57,-995
12:39:02.283,,70,59,-994
12:39:02.293,,69,61,-991
12:39:02.303,,71,60,-991
12:39:02.313,,69,57,-995
12:39:02.323,,68,56,-995
12:39:02.333,,68,57,-996
12:39:02.343,,68,63,-999
12:39:02.353,,68,61,-998
12:39:02.363,,68,59,-999
12:39:02.373,,67,62,-998
12:39:02.383,,65,65,-998
12:39:02.393,,64,66,-1003
12:39:02.403,,65,65,-1007
12:39:02.413,,64,64,-1010
12:39:02.423,,64,65,-1007
12:39:02.433,,63,62,-1001
12:39:02.443,,61,63,-995
12:39:02.453,,63,64,-993
12:39:02.463,,63,65,-994
12:39:02.473,,63,64,-993
12:39:02.483,,64,64,-995
12:39:02.493,,63,65,-1000
12:39:02.503,,67,67,-1006
12:39:02.513,,70,67,-1007
12:39:02.523,,68,64,-1004
12:39:02.533,,66,65,-1000
12:39:02.543,,67,65,-999
12:39:02.553,,68,67,-997
12:39:02.563,,68,66,-997
12:39:02.573,,65,63,-998
12:39:02.583,,68,62,-1000
12:39:02.593,,67,58,-1001
12:39:02.603,,68,61,-999
12:39:02.613,,69,61,-998
12:39:02.623,,69,59,-996
12:39:02.633,,70,59,-992
12:39:02.643,,71,60,-992
12:39:02.653,,71,59,-993
12:39:02.663,,71,58,-994
12:39:02.673,,70,59,-993
12:39:02.683,,69,64,-994
12:39:02.693,,71,65,-997
12:39:02.703,,70,63,-997
12:39:02.713,,68,59,-997
12:39:02.723,,68,58,-996
12:39:02.733,,68,60,-994
12:39:02.743,,70,61,-995
12:39:02.753,,69,63,-994
12:39:02.763,,67,61,-993
12:39:02.773,,68,60,-995
12:39:02.783,,67,59,-997
12:39:02.793,,66,59,-998
12:39:02.803,,65,57,-1003
12:39:02.813,,65,60,-1004
12:39:02.823,,65,61,-1000
12:39:02.833,,66,61,-995
12:39:02.843,,64,61,-993
12:39:02.853,,66,61,-992
12:39:02.863,,67,63,-996
12:39:02.873,,67,61,-998
12:39:02.883,,66,59,-998
12:39:02.893,,64,60,-998
12:39:02.903,,65,63,-1000
12:39:02.913,,65,65,-1004
12:39:02.923,,67,66,-1008
12:39:02.933,,65,65,-1006
12:39:02.943,,63,64,-1001
12:39:02.953,,63,63,-997
12:39:02.963,,62,65,-995
12:39:02.973,,64,67,-994
12:39:02.983,,63,66,-995
12:39:02.993,,66,64,-1003
12:39:03.003,,65,63,-1001
12:39:03.013,,66,61,-998
12:39:03.023,,65,61,-996
12:39:03.033,,65,62,-997
12:39:03.043,,66,61,-998
12:39:03.053,,68,63,-999
12:39:03.063,,67,64,-999
12:39:03.073,,67,64,-1000
12:39:03.083,,67,62,-999
12:39:03.093,,67,62,-996
12:39:03.103,,66,61,-996
12:39:03.113,,69,62,-995
12:39:03.123,,68,61,-995
12:39:03.133,,66,59,-996
12:39:03.143,,67,59,-996
12:39:03.153,,66,58,-996
12:39:03.163,,67,60,-998
12:39:03.173,,66,60,-998
12:39:03.183,,64,60,-998
12:39:03.193,,64,61,-1003
12:39:03.203,,67,63,-1005
12:39:03.213,,65,61,-1003
12:39:03.223,,64,59,-998
12:39:03.233,,63,59,-993
12:39:03.243,,63,64,-993
12:39:03.253,,67,63,-994
12:39:03.263,,68,63,-996
12:39:03.273,,67,64,-999
12:39:03.283,,68,62,-999
12:39:03.293,,64,60,-998
12:39:03.303,,63,59,-999
12:39:03.313,,62,59,-1003
12:39:03.323,,61,60,-1006
12:39:03.333,,62,61,-1007
12:39:03.343,,63,61,-1004
12:39:03.353,,62,62,-1002
12:39:03.363,,62,62,-1000
12:39:03.373,,62,63,-993
12:39:03.383,,63,65,-994
12:39:03.393,,65,65,-994
12:39:03.510,,61,58,-993
12:39:03.511,,61,58,-993
12:39:03.513,,63,57,-989
12:39:03.514,,63,57,-989
12:39:03.515,,63,57,-989
12:39:03.517,,63,57,-989
12:39:03.518,,63,57,-989
12:39:03.519,,63,57,-989
12:39:03.521,,63,57,-988
12:39:03.522,,63,57,-988
12:39:03.524,,63,57,-988
12:39:03.525,,63,57,-988
12:39:03.526,,63,57,-988
12:39:03.533,,64,58,-994
12:39:03.543,,66,58,-998
12:39:03.553,,68,59,-1000
12:39:03.563,,67,58,-1000
12:39:03.573,,67,59,-1000
12:39:03.583,,67,63,-1000
12:39:03.593,,68,61,-1002
12:39:03.603,,68,59,-1000
12:39:03.613,,65,57,-993
12:39:03.623,,63,58,-991
12:39:03.633,,67,60,-994
12:39:03.643,,67,59,-996
12:39:03.653,,67,59,-994
12:39:03.663,,65,62,-996
12:39:03.673,,65,63,-1002
12:39:03.683,,67,61,-1006
12:39:03.693,,66,60,-1006
12:39:03.703,,65,61,-1005
12:39:03.713,,63,62,-1003
12:39:03.723,,64,62,-999
12:39:03.733,,62,62,-993
12:39:03.743,,63,63,-992
12:39:03.753,,66,65,-999
12:39:03.763,,67,64,-1001
12:39:03.773,,69,67,-1002
12:39:03.783,,73,66,-1002
12:39:03.793,,65,61,-1002
12:39:03.803,,64,59,-1002
12:39:03.813,,65,63,-998
12:39:03.823,,66,64,-997
12:39:03.833,,67,63,-997
12:39:03.843,,70,61,-995
12:39:03.853,,63,62,-1002
12:39:03.863,,60,52,-998
12:39:03.873,,57,50,-999
12:39:03.883,,57,50,-997
12:39:03.893,,58,51,-1005
12:39:03.903,,57,57,-1005
12:39:03.913,,62,61,-1009
12:39:03.923,,63,61,-1014
12:39:03.933,,61,58,-1013
12:39:03.943,,57,53,-1006
12:39:03.953,,60,57,-1008
12:39:03.963,,66,66,-1016
12:39:03.973,,68,69,-1019
12:39:03.983,,62,65,-1016
12:39:03.993,,59,59,-1016
12:39:04.002,,72,65,-1021
12:39:04.013,,85,73,-1017
12:39:04.022,,74,85,-998
12:39:04.032,,80,69,-994
12:39:04.043,,59,59,-994
12:39:04.052,,80,35,-1093
12:39:04.062,,64,59,-1053
12:39:04.073,,86,45,-1051
12:39:04.082,,67,97,-1074
12:39:04.092,,60,90,-1064
12:39:04.102,,81,75,-1051
12:39:04.112,,79,71,-1037
12:39:04.122,,75,50,-989
12:39:04.132,,90,40,-963
12:39:04.142,,95,15,-993
12:39:04.152,,72,26,-998
12:39:04.162,,77,36,-995
12:39:04.172,,70,30,-984
12:39:04.182,,51,10,-971
12:39:04.192,,12,12,-972
12:39:04.202,,0,21,-1004
12:39:04.212,,15,12,-1048
12:39:04.222,,21,25,-1037
12:39:04.232,,22,47,-1013
12:39:04.242,,49,50,-1006
12:39:04.252,,67,49,-989
12:39:04.262,,77,39,-973
12:39:04.272,,71,4,-979
12:39:04.282,,67,-3,-981
12:39:04.292,,44,12,-995
12:39:04.302,,41,-7,-998
12:39:04.312,,95,-32,-1015
12:39:04.322,,113,-13,-1050
12:39:04.332,,119,8,-1070
12:39:04.342,,122,22,-1073
12:39:04.352,,148,37,-1105
12:39:04.362,,136,36,-1075
12:39:04.372,,129,32,-1022
12:39:04.382,,151,-52,-997
12:39:04.392,,99,-79,-966
12:39:04.402,,111,64,-930
12:39:04.412,,162,90,-943
12:39:04.422,,224,73,-966
12:39:04.432,,233,32,-820
12:39:04.442,,17,22,-645
12:39:04.452,,-31,99,-746
12:39:04.462,,155,168,-1004
12:39:04.472,,270,183,-1178
12:39:04.482,,201,138,-1197
12:39:04.492,,103,25,-1128
12:39:04.502,,61,-1,-1088
12:39:04.512,,100,10,-1050
12:39:04.522,,155,31,-1011
12:39:04.532,,153,-13,-983
12:39:04.542,,142,-18,-962
12:39:04.552,,75,-45,-900
12:39:04.562,,24,-34,-847
12:39:04.572,,86,-46,-853
12:39:04.582,,134,-19,-938
12:39:04.592,,179,10,-991
12:39:04.602,,182,31,-966
12:39:04.612,,181,52,-937
12:39:04.622,,170,33,-925
12:39:04.632,,145,7,-951
12:39:04.642,,148,-29,-1026
12:39:04.652,,147,-45,-1013
12:39:04.662,,174,-90,-943
12:39:04.672,,393,9,-912
12:39:04.682,,280,106,-806
12:39:04.692,,-28,63,-723
12:39:04.702,,243,-37,-829
12:39:04.712,,360,-47,-871
12:39:04.722,,280,-12,-959
12:39:04.732,,247,1,-949
12:39:04.742,,255,29,-1015
12:39:04.752,,244,100,-1109
12:39:04.762,,255,150,-1157
12:39:04.772,,271,173,-1127
12:39:04.782,,206,123,-1090
12:39:04.792,,319,91,-1088
12:39:04.802,,265,91,-1050
12:39:04.812,,289,86,-979
12:39:04.822,,218,117,-952
12:39:04.832,,-20,129,-917
12:39:04.842,,108,82,-905
12:39:04.852,,204,101,-790
12:39:04.862,,242,92,-773
12:39:04.872,,170,84,-833
12:39:04.882,,144,69,-877
12:39:04.892,,96,48,-914
12:39:04.902,,-51,-7,-1018
12:39:04.912,,236,53,-1071
12:39:04.922,,195,82,-962
12:39:04.932,,61,41,-988
12:39:04.942,,84,57,-953
12:39:04.952,,111,21,-1001
12:39:04.962,,96,-30,-1086
12:39:04.972,,94,-44,-1114
12:39:05.096,,124,30,-1030
12:39:05.097,,124,30,-1030
12:39:05.098,,87,-12,-1018
12:39:05.100,,87,-12,-1018
12:39:05.101,,87,-12,-1018
12:39:05.102,,87,-12,-1018
12:39:05.104,,87,-12,-1018
12:39:05.105,,87,-12,-1018
12:39:05.106,,87,-12,-1018
12:39:05.108,,108,42,-1016
12:39:05.109,,108,42,-1016
12:39:05.111,,108,42,-1016
12:39:05.112,,108,42,-1016
12:39:05.113,,108,42,-1016
12:39:05.122,,137,86,-1026
12:39:05.132,,167,118,-1044
12:39:05.142,,204,75,-1073
12:39:05.152,,188,23,-1069
12:39:05.162,,164,19,-1034
12:39:05.172,,176,33,-949
12:39:05.182,,174,12,-920
12:39:05.192,,163,4,-878
12:39:05.202,,140,5,-851
12:39:05.212,,134,-2,-869
12:39:05.222,,163,-18,-896
12:39:05.232,,163,-14,-902
12:39:05.242,,170,2,-899
12:39:05.252,,178,-1,-936
12:39:05.262,,181,-18,-984
12:39:05.272,,172,-37,-987
12:39:05.282,,175,-26,-952
12:39:05.292,,149,-18,-941
12:39:05.302,,143,-26,-958
12:39:05.312,,134,-4,-987
12:39:05.322,,151,4,-1022
12:39:05.332,,165,5,-1050
12:39:05.342,,176,58,-1074
12:39:05.352,,204,86,-1056
12:39:05.362,,191,84,-1044
12:39:05.372,,185,106,-1018
12:39:05.382,,189,101,-1001
12:39:05.392,,186,99,-953
12:39:05.402,,212,128,-930
12:39:05.412,,211,145,-926
12:39:05.422,,193,97,-997
12:39:05.432,,271,91,-1021
12:39:05.442,,255,110,-1005
12:39:05.452,,230,169,-967
12:39:05.462,,209,141,-954
12:39:05.472,,219,141,-966
12:39:05.482,,223,152,-992
12:39:05.492,,241,144,-998
12:39:05.502,,271,159,-988
12:39:05.512,,299,177,-995
12:39:05.522,,299,180,-980
12:39:05.532,,275,202,-953
12:39:05.542,,252,161,-983
12:39:05.552,,218,58,-1045
12:39:05.562,,184,20,-1034
12:39:05.572,,307,84,-1049
12:39:05.582,,271,44,-1052
12:39:05.592,,130,43,-989
12:39:05.602,,202,30,-917
12:39:05.612,,186,37,-1021
12:39:05.622,,166,117,-905
12:39:05.632,,139,148,-865
12:39:05.642,,117,155,-844
12:39:05.652,,127,141,-787
12:39:05.662,,140,145,-729
12:39:05.672,,112,141,-703
12:39:05.682,,16,223,-778
12:39:05.692,,-18,287,-897
12:39:05.702,,-18,341,-1053
12:39:05.712,,-22,351,-1163
12:39:05.722,,30,345,-1173
12:39:05.732,,6,292,-1148
12:39:05.742,,47,216,-1157
12:39:05.752,,34,119,-1162
12:39:05.762,,5,-3,-1104
12:39:05.772,,-69,-94,-1002
12:39:05.782,,-148,-23,-937
12:39:05.792,,-183,56,-1099
12:39:05.802,,-142,118,-1189
12:39:05.812,,43,150,-1111
12:39:05.822,,1,90,-1074
12:39:05.832,,-87,-10,-1061
12:39:05.842,,-191,-104,-1016
12:39:05.852,,-290,-133,-951
12:39:05.862,,-288,-116,-889
12:39:05.872,,-264,-37,-827
12:39:05.882,,-260,84,-791
12:39:05.892,,-226,207,-787
12:39:05.902,,-166,270,-775
12:39:05.912,,-152,262,-776
12:39:05.922,,-178,217,-839
12:39:05.932,,-183,131,-995
12:39:05.942,,-244,85,-1033
12:39:05.952,,-233,66,-1091
12:39:05.962,,-217,147,-1061
12:39:05.972,,-141,219,-1045
12:39:05.982,,-108,252,-1064
12:39:05.992,,-104,240,-1102
12:39:06.002,,-151,233,-1209
12:39:06.012,,-192,238,-1290
12:39:06.022,,-193,231,-1304
12:39:06.032,,-99,178,-1247
12:39:06.042,,-87,262,-1177
12:39:06.052,,-62,310,-1108
12:39:06.062,,-64,290,-942
12:39:06.072,,-52,131,-872
12:39:06.082,,-102,58,-861
12:39:06.092,,-101,40,-887
12:39:06.102,,-132,22,-867
12:39:06.112,,-61,45,-873
12:39:06.122,,-88,94,-906
12:39:06.132,,-82,73,-949
12:39:06.142,,-127,44,-1042
12:39:06.152,,-107,-25,-1168
12:39:06.162,,-238,81,-1018
12:39:06.172,,-228,172,-893
12:39:06.182,,-270,193,-807
12:39:06.192,,-392,208,-730
12:39:06.202,,-425,168,-724
12:39:06.212,,-322,144,-723
12:39:06.222,,-208,130,-793
12:39:06.232,,-159,84,-846
12:39:06.242,,-155,85,-886
12:39:06.252,,-100,80,-964
12:39:06.262,,-55,105,-1040
12:39:06.272,,17,133,-1076
12:39:06.282,,78,205,-1069
12:39:06.292,,106,272,-1046
12:39:06.302,,111,269,-1056
12:39:06.312,,95,216,-1074
12:39:06.322,,91,58,-1033
12:39:06.332,,91,17,-1021
12:39:06.342,,56,9,-962
12:39:06.352,,4,65,-915
12:39:06.362,,-26,139,-897
12:39:06.372,,-46,152,-915
12:39:06.382,,17,135,-950
12:39:06.392,,81,211,-982
12:39:06.402,,67,208,-1029
12:39:06.412,,39,103,-1120
12:39:06.422,,2,27,-1170
12:39:06.432,,-46,-15,-1137
12:39:06.442,,-62,-39,-1128
12:39:06.452,,-56,-24,-1097
12:39:06.462,,-58,0,-1061
12:39:06.472,,-48,13,-1037
12:39:06.482,,6,38,-1007
12:39:06.602,,100,112,-986
12:39:06.603,,100,112,-986
12:39:06.604,,100,112,-986
12:39:06.606,,100,112,-986
12:39:06.607,,100,112,-986
12:39:06.609,,100,112,-986
12:39:06.610,,98,98,-955
12:39:06.611,,98,98,-955
12:39:06.613,,98,98,-955
12:39:06.614,,98,98,-955
12:39:06.615,,98,98,-955
12:39:06.617,,98,98,-955
12:39:06.618,,98,98,-955
12:39:06.622,,74,81,-947
12:39:06.632,,38,83,-922
12:39:06.642,,-2,101,-912
12:39:06.652,,-19,94,-923
12:39:06.662,,-8,55,-949
12:39:06.672,,17,23,-982
12:39:06.682,,64,21,-1021
12:39:06.692,,95,30,-1051
12:39:06.702,,104,2,-1020
12:39:06.712,,48,-74,-967
12:39:06.722,,40,-59,-931
12:39:06.732,,43,-15,-915
12:39:06.742,,55,15,-922
12:39:06.752,,95,1,-950
12:39:06.762,,141,-12,-1010
12:39:06.772,,161,-7,-1069
12:39:06.782,,162,-14,-1080
12:39:06.792,,178,-35,-1057
12:39:06.802,,185,-29,-1024
12:39:06.812,,194,-20,-991
12:39:06.822,,195,-15,-972
12:39:06.832,,140,12,-1003
12:39:06.842,,207,36,-1059
12:39:06.852,,199,66,-1058
12:39:06.862,,197,52,-1083
12:39:06.872,,145,9,-1095
12:39:06.882,,103,-40,-1086
12:39:06.892,,85,-31,-1050
12:39:06.902,,97,-2,-991
12:39:06.912,,111,31,-941
12:39:06.922,,115,61,-928
12:39:06.932,,119,82,-962
12:39:06.942,,140,86,-1017
12:39:06.952,,150,88,-1047
12:39:06.962,,158,106,-1041
12:39:06.972,,163,82,-1029
12:39:06.982,,180,46,-1018
12:39:06.992,,177,20,-1022
12:39:07.002,,179,17,-1033
12:39:07.012,,179,18,-1024
12:39:07.022,,198,30,-1037
12:39:07.032,,208,45,-1066
12:39:07.042,,223,63,-1062
12:39:07.052,,221,94,-1038
12:39:07.062,,210,117,-990
12:39:07.072,,193,129,-964
12:39:07.082,,178,135,-944
12:39:07.092,,173,122,-894
12:39:07.102,,156,127,-902
12:39:07.112,,121,148,-906
12:39:07.122,,122,132,-906
12:39:07.132,,139,101,-904
12:39:07.142,,161,84,-897
12:39:07.152,,186,77,-906
12:39:07.162,,185,95,-896
12:39:07.172,,191,101,-868
12:39:07.182,,194,131,-866
12:39:07.192,,164,163,-880
12:39:07.202,,146,190,-919
12:39:07.212,,148,198,-945
12:39:07.222,,167,223,-1003
12:39:07.232,,182,247,-1071
12:39:07.242,,195,255,-1109
12:39:07.252,,190,266,-1122
12:39:07.262,,153,258,-1115
12:39:07.272,,114,235,-1079
12:39:07.282,,127,209,-1029
12:39:07.292,,153,195,-993
12:39:07.302,,169,181,-958
12:39:07.312,,171,144,-932
12:39:07.322,,172,114,-915
12:39:07.332,,180,113,-914
12:39:07.342,,201,111,-901
12:39:07.352,,241,126,-846
12:39:07.362,,267,129,-826
12:39:07.372,,301,140,-817
12:39:07.382,,354,146,-804
12:39:07.392,,390,155,-791
12:39:07.402,,372,136,-818
12:39:07.412,,370,100,-868
12:39:07.422,,357,54,-898
12:39:07.432,,388,14,-959
12:39:07.442,,392,-29,-1003
12:39:07.452,,357,-54,-1041
12:39:07.462,,364,-76,-1091
12:39:07.472,,391,-44,-1144
12:39:07.482,,380,27,-1127
12:39:07.492,,363,73,-1111
12:39:07.502,,356,87,-1104
12:39:07.512,,288,110,-1122
12:39:07.522,,266,126,-1126
12:39:07.532,,250,130,-1091
12:39:07.542,,184,132,-1019
12:39:07.552,,125,145,-975
12:39:07.562,,66,155,-956
12:39:07.572,,56,157,-942
12:39:07.582,,28,206,-913
12:39:07.592,,37,215,-892
12:39:07.602,,16,182,-936
12:39:07.612,,-1,169,-961
12:39:07.622,,6,166,-977
12:39:07.632,,38,153,-1003
12:39:07.642,,58,112,-1055
12:39:07.652,,88,104,-1092
12:39:07.662,,123,92,-1098
12:39:07.672,,127,73,-1061
12:39:07.682,,139,47,-1033
12:39:07.692,,145,30,-1001
12:39:07.702,,166,43,-969
12:39:07.712,,172,16,-958
12:39:07.722,,182,23,-949
12:39:07.732,,207,45,-905
12:39:07.742,,258,52,-878
12:39:07.752,,272,46,-854
12:39:07.762,,276,49,-853
12:39:07.772,,268,59,-895
12:39:07.782,,254,77,-930
12:39:07.792,,240,99,-969
12:39:07.802,,273,113,-1004
12:39:07.812,,306,114,-1016
12:39:07.822,,312,99,-1007
12:39:07.832,,292,86,-996
12:39:07.842,,271,83,-986
12:39:07.852,,266,88,-992
12:39:07.862,,266,106,-966
12:39:07.872,,251,112,-943
12:39:07.882,,232,105,-936
12:39:07.892,,220,96,-945
12:39:07.902,,221,91,-968
12:39:07.912,,225,91,-976
12:39:07.922,,220,99,-969
12:39:07.932,,217,107,-965
12:39:07.942,,222,112,-964
12:39:07.952,,228,106,-966
12:39:07.962,,233,101,-964
12:39:07.972,,228,99,-965
12:39:07.982,,224,102,-969
12:39:07.992,,237,114,-983
12:39:08.002,,240,115,-990
12:39:08.012,,234,111,-988
12:39:08.022,,227,108,-981
12:39:08.146,,204,102,-1002
12:39:08.148,,204,102,-1002
12:39:08.149,,204,102,-1002
12:39:08.150,,208,115,-1007
12:39:08.152,,208,115,-1007
12:39:08.153,,208,115,-1007
12:39:08.154,,208,115,-1007
12:39:08.156,,208,115,-1007
12:39:08.157,,208,115,-1007
12:39:08.158,,208,115,-991
12:39:08.160,,199,137,-991
12:39:08.161,,199,137,-991
12:39:08.163,,199,137,-991
12:39:08.164,,199,137,-991
12:39:08.172,,197,148,-974
12:39:08.182,,201,147,-961
12:39:08.192,,201,148,-963
12:39:08.202,,204,141,-970
12:39:08.212,,209,128,-980
12:39:08.222,,207,120,-986
12:39:08.232,,206,114,-987
12:39:08.242,,208,106,-980
12:39:08.252,,204,101,-971
12:39:08.262,,197,94,-963
12:39:08.272,,193,91,-964
12:39:08.282,,195,94,-967
12:39:08.292,,198,102,-966
12:39:08.302,,199,105,-969
12:39:08.312,,201,99,-974
12:39:08.322,,203,95,-980
12:39:08.332,,203,99,-979
12:39:08.342,,202,108,-977
12:39:08.352,,203,112,-977
12:39:08.362,,206,111,-979
12:39:08.372,,205,107,-978
12:39:08.382,,206,106,-976
12:39:08.392,,205,108,-976
12:39:08.402,,206,108,-975
12:39:08.412,,207,109,-980
12:39:08.422,,205,109,-986
12:39:08.432,,203,108,-978
12:39:08.442,,209,109,-973
12:39:08.452,,209,112,-965
12:39:08.462,,208,112,-959
12:39:08.472,,208,107,-959
12:39:08.482,,206,104,-963
12:39:08.492,,204,105,-971
12:39:08.502,,203,105,-987
12:39:08.512,,202,104,-989
12:39:08.522,,202,104,-983
12:39:08.532,,200,105,-975
12:39:08.542,,199,107,-966
12:39:08.552,,201,110,-964
12:39:08.562,,203,109,-968
12:39:08.572,,203,108,-973
12:39:08.582,,202,108,-972
12:39:08.592,,202,108,-973
12:39:08.602,,203,104,-972
12:39:08.612,,204,106,-970
12:39:08.622,,204,110,-972
12:39:08.632,,209,107,-978
12:39:08.642,,209,107,-979
12:39:08.652,,208,107,-975
12:39:08.662,,208,107,-974
12:39:08.672,,212,112,-978
12:39:08.682,,210,111,-974
12:39:08.692,,209,107,-971
12:39:08.702,,208,108,-968
12:39:08.712,,209,109,-965
12:39:08.722,,206,111,-969
12:39:08.732,,207,112,-976
12:39:08.742,,203,112,-975
12:39:08.752,,204,109,-976
12:39:08.762,,205,110,-978
12:39:08.772,,203,110,-975
12:39:08.782,,203,109,-972
12:39:08.792,,202,111,-970
12:39:08.802,,199,113,-971
12:39:08.812,,202,110,-975
12:39:08.822,,200,107,-982
12:39:08.832,,199,104,-984
12:39:08.842,,200,107,-981
12:39:08.852,,200,110,-973
12:39:08.862,,201,113,-971
12:39:08.872,,204,112,-970
12:39:08.882,,204,112,-970
12:39:08.892,,205,109,-977
12:39:08.902,,208,108,-981
12:39:08.912,,209,107,-977
12:39:08.922,,208,107,-971
12:39:08.932,,206,110,-967
12:39:08.942,,208,111,-969
12:39:08.952,,208,109,-971
12:39:08.962,,207,108,-975
12:39:08.972,,205,113,-978
12:39:08.982,,206,112,-975
12:39:08.992,,207,113,-972
12:39:09.002,,206,114,-970
12:39:09.012,,207,112,-972
12:39:09.022,,207,110,-975
12:39:09.032,,206,110,-975
12:39:09.042,,207,110,-975
12:39:09.052,,206,111,-973
12:39:09.062,,206,110,-974
12:39:09.072,,206,110,-976
12:39:09.082,,206,111,-976
12:39:09.092,,206,111,-975
12:39:09.102,,206,112,-972
12:39:09.112,,206,114,-972
12:39:09.122,,208,112,-973
12:39:09.132,,206,111,-973
12:39:09.142,,205,109,-968
12:39:09.152,,204,112,-970
12:39:09.162,,203,111,-969
12:39:09.172,,203,110,-970
12:39:09.182,,201,109,-975
12:39:09.192,,201,107,-981
12:39:09.202,,202,109,-983
12:39:09.212,,203,111,-980
12:39:09.222,,203,112,-976
12:39:09.232,,202,114,-973
12:39:09.242,,204,112,-975
12:39:09.252,,206,111,-974
12:39:09.262,,205,110,-972
12:39:09.272,,206,111,-965
12:39:09.282,,207,110,-968
12:39:09.292,,205,110,-972
12:39:09.302,,206,110,-975
12:39:09.312,,205,110,-978
12:39:09.322,,207,110,-977
12:39:09.332,,204,110,-973
12:39:09.342,,206,110,-974
12:39:09.352,,205,109,-976
12:39:09.362,,208,112,-975
12:39:09.372,,208,116,-970
12:39:09.382,,210,117,-971
12:39:09.392,,209,118,-976
12:39:09.402,,208,117,-972
12:39:09.412,,208,116,-971
12:39:09.422,,206,113,-972
12:39:09.432,,205,110,-971
12:39:09.442,,204,110,-974
12:39:09.452,,203,110,-976
12:39:09.462,,202,113,-975
12:39:09.472,,204,114,-975
12:39:09.482,,204,114,-974
12:39:09.492,,205,113,-974
12:39:09.502,,207,113,-976
12:39:09.512,,208,112,-975
12:39:09.522,,206,116,-972
12:39:09.532,,209,112,-973
12:39:09.652,,209,120,-975
12:39:09.653,,208,120,-975
12:39:09.654,,208,120,-975
12:39:09.656,,208,120,-975
12:39:09.657,,208,120,-975
12:39:09.659,,208,120,-975
12:39:09.660,,208,120,-975
12:39:09.661,,208,120,-974
12:39:09.663,,207,120,-974
12:39:09.664,,207,120,-974
12:39:09.665,,207,120,-974
12:39:09.667,,207,120,-974
12:39:09.668,,207,120,-974
12:39:09.672,,207,116,-969
12:39:09.682,,210,115,-971
12:39:09.692,,208,114,-974
12:39:09.702,,212,112,-972
12:39:09.712,,215,110,-969
12:39:09.722,,216,109,-964
12:39:09.732,,211,109,-964
12:39:09.742,,211,111,-965
12:39:09.752,,214,114,-972
12:39:09.762,,216,116,-978
12:39:09.772,,214,114,-979
12:39:09.782,,215,108,-973
12:39:09.792,,219,121,-972
12:39:09.802,,217,121,-970
12:39:09.812,,217,120,-971
12:39:09.822,,217,123,-975
12:39:09.832,,215,124,-980
12:39:09.842,,215,123,-976
12:39:09.852,,207,119,-967
12:39:09.862,,199,118,-957
12:39:09.872,,197,121,-958
12:39:09.882,,201,126,-963
12:39:09.892,,199,128,-964
12:39:09.902,,201,129,-975
12:39:09.912,,202,128,-985
12:39:09.922,,203,126,-989
12:39:09.932,,201,123,-988
12:39:09.942,,199,120,-986
12:39:09.952,,199,117,-979
12:39:09.962,,198,116,-973
12:39:09.972,,196,116,-969
12:39:09.982,,196,119,-966
12:39:09.992,,199,123,-964
12:39:10.002,,199,126,-963
12:39:10.012,,203,128,-964
12:39:10.022,,208,129,-971
12:39:10.032,,209,125,-976
12:39:10.042,,221,124,-981
12:39:10.052,,223,122,-976
12:39:10.062,,227,123,-970
12:39:10.072,,225,123,-964
12:39:10.082,,225,123,-960
12:39:10.092,,221,125,-960
12:39:10.102,,223,125,-964
12:39:10.112,,222,126,-969
12:39:10.122,,221,127,-969
12:39:10.132,,219,129,-966
12:39:10.142,,215,128,-963
12:39:10.152,,217,127,-966
12:39:10.162,,216,127,-971
12:39:10.172,,213,128,-977
12:39:10.182,,215,128,-977
12:39:10.192,,211,128,-976
12:39:10.202,,213,126,-969
12:39:10.212,,213,126,-964
12:39:10.222,,210,128,-963
12:39:10.232,,209,129,-963
12:39:10.242,,209,127,-965
12:39:10.252,,209,127,-970
12:39:10.262,,209,126,-975
12:39:10.272,,209,125,-976
12:39:10.282,,209,126,-976
12:39:10.292,,210,127,-974
12:39:10.302,,210,128,-974
12:39:10.312,,212,129,-974
12:39:10.322,,212,131,-976
12:39:10.332,,214,130,-973
12:39:10.342,,211,129,-972
12:39:10.352,,211,130,-971
12:39:10.362,,210,129,-970
12:39:10.372,,211,132,-972
12:39:10.382,,211,131,-972
12:39:10.392,,211,130,-972
12:39:10.402,,211,131,-971
12:39:10.412,,213,134,-971
12:39:10.422,,213,135,-968
12:39:10.432,,212,132,-973
12:39:10.442,,211,130,-972
12:39:10.452,,209,130,-970
12:39:10.462,,208,128,-972
12:39:10.472,,206,127,-976
12:39:10.482,,206,129,-981
12:39:10.492,,205,130,-981
12:39:10.502,,204,133,-978
12:39:10.512,,203,133,-974
12:39:10.522,,204,130,-971
12:39:10.532,,204,129,-972
12:39:10.542,,205,128,-975
12:39:10.552,,208,131,-975
12:39:10.562,,210,130,-970
12:39:10.572,,210,130,-967
12:39:10.582,,211,130,-965
12:39:10.592,,211,129,-967
12:39:10.602,,210,126,-970
12:39:10.612,,210,123,-972
12:39:10.622,,210,126,-972
12:39:10.632,,210,126,-971
12:39:10.642,,209,124,-971
12:39:10.652,,208,122,-975
12:39:10.662,,206,123,-979
12:39:10.672,,206,124,-979
12:39:10.682,,208,133,-966
12:39:10.692,,208,129,-964
12:39:10.702,,209,126,-966
12:39:10.712,,212,128,-970
12:39:10.722,,213,128,-973
12:39:10.732,,216,127,-974
12:39:10.742,,215,128,-973
12:39:10.752,,215,128,-970
12:39:10.762,,213,127,-967
12:39:10.772,,213,129,-967
12:39:10.782,,214,130,-965
12:39:10.792,,214,131,-964
12:39:10.802,,215,130,-967
12:39:10.812,,217,132,-968
12:39:10.822,,218,131,-971
12:39:10.832,,217,130,-972
12:39:10.842,,216,127,-973
12:39:10.852,,215,126,-975
12:39:10.862,,214,128,-974
12:39:10.872,,213,127,-973
12:39:10.882,,211,127,-971
12:39:10.892,,211,128,-969
12:39:10.902,,210,129,-970
12:39:10.912,,209,131,-969
12:39:10.922,,210,131,-970
12:39:10.932,,209,132,-971
12:39:10.942,,209,134,-972
12:39:10.952,,210,133,-971
12:39:10.962,,209,132,-971
12:39:10.972,,210,131,-972
12:39:10.982,,210,132,-970
12:39:10.992,,212,132,-972
12:39:11.002,,208,132,-974
12:39:11.012,,211,130,-975
12:39:11.022,,210,130,-975
12:39:11.032,,209,130,-974
12:39:11.042,,206,129,-970
12:39:11.052,,207,128,-970
12:39:11.184,,210,123,-970
12:39:11.186,,210,123,-970
12:39:11.187,,210,123,-970
12:39:11.188,,210,123,-970
12:39:11.190,,210,123,-970
12:39:11.191,,210,123,-970
12:39:11.193,,211,123,-969
12:39:11.194,,211,123,-969
12:39:11.195,,211,123,-969
12:39:11.197,,211,123,-969
12:39:11.198,,211,123,-969
12:39:11.199,,211,123,-969
12:39:11.201,,211,123,-969
12:39:11.202,,208,123,-969
12:39:11.203,,208,123,-969
12:39:11.212,,209,122,-969
12:39:11.222,,206,121,-966
12:39:11.232,,209,122,-969
12:39:11.242,,211,126,-977
12:39:11.252,,211,129,-979
12:39:11.262,,214,136,-979
12:39:11.272,,216,144,-978
12:39:11.282,,220,149,-980
12:39:11.292,,219,148,-975
12:39:11.302,,215,152,-965
12:39:11.312,,217,151,-956
12:39:11.322,,217,162,-948
12:39:11.332,,221,159,-945
12:39:11.342,,223,154,-950
12:39:11.352,,223,146,-963
12:39:11.362,,227,147,-973
12:39:11.372,,226,146,-978
12:39:11.382,,220,143,-979
12:39:11.392,,222,140,-979
12:39:11.402,,223,138,-977
12:39:11.412,,215,138,-974
12:39:11.422,,213,134,-975
12:39:11.432,,208,131,-975
12:39:11.442,,207,128,-971
12:39:11.452,,199,128,-958
12:39:11.462,,199,129,-952
12:39:11.472,,200,128,-958
12:39:11.482,,201,128,-970
12:39:11.492,,205,128,-981
12:39:11.502,,213,135,-990
12:39:11.512,,224,143,-991
12:39:11.522,,230,144,-984
12:39:11.532,,233,139,-979
12:39:11.542,,232,136,-976
12:39:11.552,,232,133,-972
12:39:11.562,,230,138,-968
12:39:11.572,,225,140,-971
12:39:11.582,,211,148,-973
12:39:11.592,,205,152,-987
12:39:11.602,,208,144,-1007
12:39:11.612,,209,131,-1017
12:39:11.622,,206,115,-1019
12:39:11.632,,208,91,-1021
12:39:11.642,,206,74,-1010
12:39:11.652,,208,61,-990
12:39:11.662,,206,46,-948
12:39:11.672,,209,30,-920
12:39:11.682,,205,51,-904
12:39:11.692,,242,68,-923
12:39:11.702,,254,97,-932
12:39:11.712,,277,142,-997
12:39:11.722,,265,146,-1013
12:39:11.732,,265,148,-1007
12:39:11.742,,227,161,-982
12:39:11.752,,269,131,-986
12:39:11.762,,234,128,-980
12:39:11.772,,232,114,-985
12:39:11.782,,229,99,-950
12:39:11.792,,224,67,-954
12:39:11.802,,228,31,-930
12:39:11.812,,196,35,-883
12:39:11.822,,179,64,-896
12:39:11.832,,155,102,-906
12:39:11.842,,197,53,-900
12:39:11.852,,164,108,-960
12:39:11.862,,105,237,-1002
12:39:11.872,,151,193,-958
12:39:11.882,,192,201,-1014
12:39:11.892,,163,245,-1045
12:39:11.902,,162,210,-1050
12:39:11.912,,166,167,-1061
12:39:11.922,,165,158,-1063
12:39:11.932,,179,167,-1044
12:39:11.942,,184,167,-1013
12:39:11.952,,210,66,-950
12:39:11.962,,181,84,-954
12:39:11.972,,198,82,-926
12:39:11.982,,202,81,-891
12:39:11.992,,187,111,-888
12:39:12.002,,198,91,-897
12:39:12.012,,212,93,-913
12:39:12.022,,206,97,-922
12:39:12.032,,192,93,-938
12:39:12.042,,208,70,-985
12:39:12.052,,232,60,-1059
12:39:12.062,,263,44,-1071
12:39:12.072,,254,67,-1080
12:39:12.082,,228,74,-1072
12:39:12.092,,221,80,-1028
12:39:12.102,,223,90,-1006
12:39:12.112,,233,106,-996
12:39:12.122,,227,124,-994
12:39:12.132,,217,143,-998
12:39:12.142,,220,154,-1003
12:39:12.152,,236,167,-1016
12:39:12.162,,239,179,-1029
12:39:12.172,,234,188,-1036
12:39:12.182,,225,175,-1036
12:39:12.192,,218,156,-1022
12:39:12.202,,213,144,-1000
12:39:12.212,,209,144,-973
12:39:12.222,,217,167,-948
12:39:12.232,,222,161,-930
12:39:12.242,,217,160,-922
12:39:12.252,,203,159,-926
12:39:12.262,,202,153,-936
12:39:12.272,,216,154,-940
12:39:12.282,,211,155,-926
12:39:12.292,,198,153,-909
12:39:12.302,,190,155,-910
12:39:12.312,,188,166,-914
12:39:12.322,,191,174,-904
12:39:12.332,,196,190,-892
12:39:12.342,,190,194,-888
12:39:12.352,,169,186,-888
12:39:12.362,,176,177,-907
12:39:12.372,,188,152,-921
12:39:12.382,,182,145,-935
12:39:12.392,,172,144,-947
12:39:12.402,,170,124,-953
12:39:12.412,,168,102,-946
12:39:12.422,,160,94,-919
12:39:12.432,,158,93,-899
12:39:12.442,,160,93,-903
12:39:12.452,,163,99,-905
12:39:12.462,,161,103,-920
12:39:12.472,,171,114,-950
12:39:12.482,,188,118,-992
12:39:12.492,,178,124,-1003
12:39:12.502,,169,148,-1020
12:39:12.512,,177,159,-1033
12:39:12.522,,175,144,-1034
12:39:12.532,,174,144,-1026
12:39:12.542,,144,150,-1050
12:39:12.552,,157,175,-1031
12:39:12.562,,249,189,-995
12:39:12.572,,205,204,-996
12:39:12.691,,205,133,-931
12:39:12.692,,205,133,-931
12:39:12.694,,205,133,-931
12:39:12.695,,187,205,-949
12:39:12.696,,187,205,-949
12:39:12.698,,187,205,-949
12:39:12.699,,187,205,-949
12:39:12.700,,187,205,-949
12:39:12.702,,187,205,-949
12:39:12.703,,187,205,-949
12:39:12.704,,160,214,-934
12:39:12.706,,160,214,-934
12:39:12.707,,160,214,-934
12:39:12.712,,160,214,-934
12:39:12.722,,134,194,-909
12:39:12.732,,116,235,-859
12:39:12.742,,232,253,-868
12:39:12.752,,188,268,-870
12:39:12.762,,157,172,-854
12:39:12.772,,132,149,-866
12:39:12.782,,94,205,-861
12:39:12.792,,29,258,-770
12:39:12.802,,-28,239,-658
12:39:12.812,,-23,258,-716
12:39:12.822,,21,335,-997
12:39:12.832,,203,298,-1061
12:39:12.842,,166,304,-1084
12:39:12.852,,106,288,-1141
12:39:12.862,,16,258,-1095
12:39:12.872,,-6,301,-1007
12:39:12.882,,9,305,-934
12:39:12.892,,-3,326,-933
12:39:12.902,,10,290,-947
12:39:12.912,,-18,271,-941
12:39:12.922,,-55,254,-910
12:39:12.932,,-22,256,-962
12:39:12.942,,21,274,-1070
12:39:12.952,,38,330,-1095
12:39:12.962,,12,282,-993
12:39:12.972,,-5,261,-979
12:39:12.982,,-61,260,-933
12:39:12.992,,-35,295,-894
12:39:13.002,,35,355,-990
12:39:13.012,,110,357,-1065
12:39:13.022,,84,397,-1133
12:39:13.032,,15,306,-1044
12:39:13.042,,-65,309,-987
12:39:13.052,,-53,319,-978
12:39:13.062,,-56,295,-925
12:39:13.072,,-83,336,-918
12:39:13.082,,-66,306,-906
12:39:13.092,,-1,330,-907
12:39:13.102,,42,358,-936
12:39:13.112,,95,362,-945
12:39:13.122,,-31,296,-921
12:39:13.132,,-54,278,-877
12:39:13.142,,-29,256,-862
12:39:13.152,,-30,240,-875
12:39:13.162,,-3,208,-841
12:39:13.172,,-98,230,-817
12:39:13.182,,-130,232,-769
12:39:13.192,,11,293,-736
12:39:13.202,,17,361,-828
12:39:13.212,,0,395,-909
12:39:13.222,,0,388,-946
12:39:13.232,,-23,352,-940
12:39:13.242,,-41,347,-900
12:39:13.252,,-108,374,-857
12:39:13.262,,-124,369,-859
12:39:13.272,,-136,359,-866
12:39:13.282,,-162,344,-900
12:39:13.292,,-167,324,-894
12:39:13.302,,-133,329,-911
12:39:13.312,,-133,390,-886
12:39:13.322,,-130,453,-840
12:39:13.332,,-128,460,-800
12:39:13.342,,-135,486,-827
12:39:13.352,,-152,485,-834
12:39:13.362,,-178,518,-852
12:39:13.371,,-170,546,-881
12:39:13.382,,-247,540,-872
12:39:13.392,,-230,518,-884
12:39:13.401,,-194,475,-879
12:39:13.411,,-230,472,-839
12:39:13.422,,-257,486,-829
12:39:13.431,,-236,510,-845
12:39:13.441,,-262,571,-794
12:39:13.452,,-279,630,-764
12:39:13.461,,-326,707,-821
12:39:13.471,,-332,683,-818
12:39:13.482,,-318,627,-827
12:39:13.491,,-341,587,-751
12:39:13.501,,-396,584,-749
12:39:13.511,,-415,595,-750
12:39:13.521,,-400,602,-758
12:39:13.531,,-375,609,-771
12:39:13.541,,-390,629,-805
12:39:13.551,,-372,603,-780
12:39:13.561,,-388,619,-774
12:39:13.571,,-376,654,-757
12:39:13.581,,-378,634,-798
12:39:13.591,,-384,585,-790
12:39:13.601,,-383,595,-784
12:39:13.611,,-421,598,-773
12:39:13.621,,-437,586,-766
12:39:13.631,,-389,598,-792
12:39:13.641,,-438,496,-756
12:39:13.651,,-454,460,-760
12:39:13.661,,-459,464,-790
12:39:13.671,,-488,462,-786
12:39:13.681,,-497,504,-765
12:39:13.691,,-501,567,-756
12:39:13.701,,-460,627,-748
12:39:13.711,,-428,581,-744
12:39:13.721,,-471,533,-740
12:39:13.731,,-502,500,-740
12:39:13.741,,-486,451,-738
12:39:13.751,,-500,441,-725
12:39:13.761,,-530,469,-676
12:39:13.771,,-547,494,-665
12:39:13.781,,-520,532,-656
12:39:13.791,,-494,550,-671
12:39:13.801,,-501,528,-655
12:39:13.811,,-499,518,-630
12:39:13.821,,-511,503,-609
12:39:13.831,,-594,564,-517
12:39:13.841,,-452,594,-510
12:39:13.851,,-314,643,-529
12:39:13.861,,-505,705,-616
12:39:13.871,,-646,642,-607
12:39:13.881,,-603,621,-683
12:39:13.891,,-506,691,-802
12:39:13.901,,-539,624,-852
12:39:13.911,,-520,559,-868
12:39:13.921,,-455,564,-803
12:39:13.931,,-470,574,-758
12:39:13.941,,-525,557,-712
12:39:13.951,,-594,585,-650
12:39:13.961,,-648,586,-626
12:39:13.971,,-672,628,-675
12:39:13.981,,-676,697,-679
12:39:13.991,,-657,704,-634
12:39:14.001,,-636,703,-584
12:39:14.011,,-639,708,-492
12:39:14.021,,-722,668,-467
12:39:14.031,,-704,628,-487
12:39:14.041,,-688,579,-526
12:39:14.051,,-693,567,-550
12:39:14.061,,-684,611,-633
12:39:14.185,,-763,604,-578
12:39:14.186,,-763,604,-578
12:39:14.187,,-763,604,-578
12:39:14.189,,-727,620,-604
12:39:14.190,,-727,620,-604
12:39:14.191,,-727,620,-604
12:39:14.193,,-727,620,-604
12:39:14.194,,-727,620,-604
12:39:14.196,,-727,620,-604
12:39:14.197,,-727,620,-609
12:39:14.198,,-722,601,-609
12:39:14.200,,-722,601,-609
12:39:14.201,,-722,601,-609
12:39:14.202,,-722,601,-609
12:39:14.211,,-734,572,-600
12:39:14.221,,-755,521,-589
12:39:14.231,,-752,483,-563
12:39:14.241,,-730,445,-549
12:39:14.251,,-738,432,-548
12:39:14.261,,-760,493,-498
12:39:14.271,,-693,488,-548
12:39:14.281,,-657,550,-545
12:39:14.291,,-646,563,-525
12:39:14.301,,-690,531,-521
12:39:14.311,,-734,499,-532
12:39:14.321,,-758,459,-531
12:39:14.331,,-756,424,-524
12:39:14.341,,-774,415,-508
12:39:14.351,,-786,408,-488
12:39:14.361,,-774,427,-448
12:39:14.371,,-740,478,-431
12:39:14.381,,-719,531,-447
12:39:14.391,,-734,562,-456
12:39:14.401,,-799,532,-466
12:39:14.411,,-797,499,-475
12:39:14.421,,-801,481,-469
12:39:14.431,,-819,461,-448
12:39:14.441,,-825,451,-426
12:39:14.451,,-821,451,-403
12:39:14.461,,-830,442,-366
12:39:14.471,,-846,430,-328
12:39:14.481,,-862,438,-302
12:39:14.491,,-865,473,-295
12:39:14.501,,-841,502,-306
12:39:14.511,,-836,503,-306
12:39:14.521,,-854,489,-298
12:39:14.531,,-902,444,-349
12:39:14.541,,-901,434,-407
12:39:14.551,,-883,415,-443
12:39:14.561,,-861,413,-460
12:39:14.571,,-838,419,-473
12:39:14.581,,-822,419,-491
12:39:14.591,,-807,412,-486
12:39:14.601,,-816,402,-459
12:39:14.611,,-868,397,-412
12:39:14.621,,-876,397,-325
12:39:14.631,,-833,364,-348
12:39:14.641,,-813,344,-378
12:39:14.651,,-784,319,-379
12:39:14.661,,-847,333,-320
12:39:14.671,,-870,351,-296
12:39:14.681,,-866,361,-286
12:39:14.691,,-840,349,-293
12:39:14.701,,-846,350,-265
12:39:14.711,,-872,371,-237
12:39:14.721,,-871,369,-246
12:39:14.731,,-895,371,-189
12:39:14.741,,-810,343,-158
12:39:14.751,,-794,333,-207
12:39:14.761,,-805,329,-220
12:39:14.771,,-811,296,-205
12:39:14.781,,-800,284,-183
12:39:14.791,,-824,272,-160
12:39:14.801,,-822,261,-141
12:39:14.811,,-826,265,-126
12:39:14.821,,-799,229,-141
12:39:14.831,,-799,212,-126
12:39:14.841,,-796,199,-103
12:39:14.851,,-763,167,-93
12:39:14.861,,-632,115,-145
12:39:14.871,,-842,180,-140
12:39:14.881,,-826,161,-171
12:39:14.891,,-838,134,-150
12:39:14.901,,-856,122,-98
12:39:14.911,,-903,125,-67
12:39:14.921,,-974,100,-34
12:39:14.931,,-973,85,-43
12:39:14.941,,-934,76,-77
12:39:14.951,,-900,85,-114
12:39:14.961,,-887,120,-145
12:39:14.971,,-866,117,-164
12:39:14.981,,-833,109,-162
12:39:14.991,,-860,151,-184
12:39:15.001,,-926,151,-217
12:39:15.011,,-843,148,-13
12:39:15.021,,-887,187,2
12:39:15.031,,-941,197,2
12:39:15.041,,-956,203,80
12:39:15.051,,-948,229,103
12:39:15.061,,-944,207,91
12:39:15.071,,-928,190,98
12:39:15.081,,-918,177,79
12:39:15.091,,-915,167,61
12:39:15.101,,-906,156,30
12:39:15.111,,-890,161,-5
12:39:15.121,,-869,157,-41
12:39:15.131,,-851,142,-65
12:39:15.141,,-850,127,-77
12:39:15.151,,-881,136,-80
12:39:15.161,,-913,140,-45
12:39:15.171,,-938,124,-144
12:39:15.181,,-968,133,-228
12:39:15.191,,-1037,144,-159
12:39:15.201,,-1073,152,-76
12:39:15.211,,-1074,154,-40
12:39:15.221,,-1049,159,-52
12:39:15.231,,-1029,167,-63
12:39:15.241,,-1023,182,-61
12:39:15.251,,-1026,205,-62
12:39:15.261,,-1035,226,-62
12:39:15.271,,-1046,237,-68
12:39:15.281,,-1064,244,-77
12:39:15.291,,-1072,265,-98
12:39:15.301,,-1085,306,-125
12:39:15.311,,-1087,320,-134
12:39:15.321,,-1077,334,-152
12:39:15.331,,-1067,350,-166
12:39:15.341,,-1036,354,-186
12:39:15.351,,-1007,359,-205
12:39:15.361,,-998,373,-212
12:39:15.371,,-999,391,-210
12:39:15.381,,-998,399,-199
12:39:15.391,,-1001,399,-184
12:39:15.401,,-1002,398,-164
12:39:15.411,,-993,394,-142
12:39:15.421,,-969,379,-121
12:39:15.431,,-951,338,-81
12:39:15.441,,-959,304,-77
12:39:15.451,,-974,269,-80
12:39:15.461,,-977,247,-79
12:39:15.471,,-973,233,-91
12:39:15.481,,-970,211,-108
12:39:15.491,,-973,192,-120
12:39:15.501,,-988,186,-122
12:39:15.511,,-991,188,-104
12:39:15.521,,-988,188,-99
12:39:15.531,,-984,181,-115
12:39:15.650,,-1010,67,-165
12:39:15.651,,-1010,67,-165
12:39:15.653,,-1010,67,-165
12:39:15.654,,-1027,80,-154
12:39:15.655,,-1027,80,-154
12:39:15.657,,-1027,80,-154
12:39:15.658,,-1027,80,-154
12:39:15.659,,-1027,80,-154
12:39:15.661,,-1027,80,-154
12:39:15.662,,-1027,80,-154
12:39:15.663,,-1051,93,-143
12:39:15.665,,-1051,93,-143
12:39:15.666,,-1051,93,-143
12:39:15.671,,-1051,93,-143
12:39:15.681,,-1063,138,-129
12:39:15.691,,-1082,177,-118
12:39:15.701,,-1073,181,-109
12:39:15.711,,-1079,180,-97
12:39:15.721,,-1088,177,-98
12:39:15.731,,-1109,171,-97
12:39:15.741,,-1135,164,-111
12:39:15.751,,-1160,175,-125
12:39:15.761,,-1158,187,-133
12:39:15.771,,-1134,175,-143
12:39:15.781,,-1104,158,-156
12:39:15.791,,-1080,147,-165
12:39:15.801,,-1064,129,-166
12:39:15.811,,-1052,97,-191
12:39:15.821,,-1039,83,-219
12:39:15.831,,-1013,70,-242
12:39:15.841,,-972,69,-260
12:39:15.851,,-933,64,-270
12:39:15.861,,-893,61,-276
12:39:15.871,,-856,57,-270
12:39:15.881,,-823,51,-266
12:39:15.891,,-798,48,-273
12:39:15.901,,-774,40,-283
12:39:15.911,,-765,34,-291
12:39:15.921,,-757,38,-292
12:39:15.931,,-749,49,-300
12:39:15.941,,-794,63,-322
12:39:15.951,,-815,75,-320
12:39:15.961,,-834,84,-313
12:39:15.971,,-863,96,-297
12:39:15.981,,-887,95,-293
12:39:15.991,,-913,93,-278
12:39:16.001,,-940,95,-256
12:39:16.011,,-958,100,-235
12:39:16.021,,-964,100,-221
12:39:16.031,,-959,100,-216
12:39:16.041,,-960,112,-222
12:39:16.051,,-971,113,-199
12:39:16.061,,-978,99,-193
12:39:16.071,,-988,104,-210
12:39:16.081,,-979,107,-218
12:39:16.091,,-956,107,-233
12:39:16.101,,-944,94,-245
12:39:16.111,,-934,89,-245
12:39:16.121,,-915,88,-250
12:39:16.131,,-893,90,-267
12:39:16.141,,-867,100,-293
12:39:16.151,,-843,114,-314
12:39:16.161,,-824,125,-331
12:39:16.171,,-828,160,-348
12:39:16.181,,-822,162,-337
12:39:16.191,,-822,195,-350
12:39:16.201,,-787,196,-311
12:39:16.211,,-792,183,-289
12:39:16.221,,-807,148,-284
12:39:16.231,,-827,128,-272
12:39:16.241,,-853,116,-260
12:39:16.251,,-876,90,-259
12:39:16.261,,-892,75,-262
12:39:16.271,,-903,82,-264
12:39:16.281,,-917,97,-261
12:39:16.291,,-929,114,-253
12:39:16.301,,-932,125,-247
12:39:16.311,,-933,144,-238
12:39:16.321,,-928,165,-220
12:39:16.331,,-932,191,-210
12:39:16.341,,-945,198,-207
12:39:16.351,,-957,184,-213
12:39:16.361,,-975,181,-221
12:39:16.371,,-977,189,-221
12:39:16.381,,-967,189,-222
12:39:16.391,,-945,200,-215
12:39:16.401,,-919,205,-210
12:39:16.411,,-900,199,-198
12:39:16.421,,-891,176,-182
12:39:16.431,,-901,174,-192
12:39:16.441,,-931,188,-184
12:39:16.451,,-949,164,-172
12:39:16.461,,-973,160,-177
12:39:16.471,,-989,149,-181
12:39:16.481,,-1008,142,-177
12:39:16.491,,-1015,139,-177
12:39:16.501,,-1019,142,-176
12:39:16.511,,-1021,145,-179
12:39:16.521,,-1024,148,-181
12:39:16.531,,-1030,145,-191
12:39:16.541,,-1027,141,-197
12:39:16.551,,-1011,148,-199
12:39:16.561,,-1003,157,-203
12:39:16.571,,-1005,172,-200
12:39:16.581,,-1011,200,-212
12:39:16.591,,-1001,210,-215
12:39:16.601,,-998,221,-224
12:39:16.611,,-997,233,-223
12:39:16.621,,-982,235,-233
12:39:16.631,,-971,229,-253
12:39:16.641,,-960,213,-275
12:39:16.651,,-943,213,-268
12:39:16.661,,-956,199,-278
12:39:16.671,,-973,176,-277
12:39:16.681,,-997,171,-266
12:39:16.691,,-1016,179,-232
12:39:16.701,,-1016,189,-193
12:39:16.711,,-1007,198,-167
12:39:16.721,,-1002,202,-160
12:39:16.731,,-1000,217,-155
12:39:16.741,,-994,220,-143
12:39:16.751,,-991,213,-137
12:39:16.761,,-988,203,-132
12:39:16.771,,-990,200,-132
12:39:16.781,,-1011,201,-134
12:39:16.791,,-1023,192,-131
12:39:16.801,,-1034,183,-128
12:39:16.811,,-1047,182,-127
12:39:16.821,,-1047,186,-121
12:39:16.831,,-1041,186,-109
12:39:16.841,,-1041,201,-102
12:39:16.851,,-1031,217,-97
12:39:16.861,,-1022,232,-96
12:39:16.871,,-1043,251,-104
12:39:16.881,,-1070,258,-103
12:39:16.891,,-1045,260,-87
12:39:16.901,,-1019,248,-78
12:39:16.911,,-1013,212,-62
12:39:16.921,,-1013,181,-53
12:39:16.931,,-1041,159,-59
12:39:16.941,,-1063,141,-80
12:39:16.951,,-1067,139,-111
12:39:16.961,,-1055,167,-132
12:39:16.971,,-1017,223,-130
12:39:16.981,,-994,251,-133
12:39:16.991,,-989,264,-138
12:39:17.115,,-996,142,-220
12:39:17.116,,-996,142,-220
12:39:17.118,,-996,142,-220
12:39:17.119,,-1008,127,-243
12:39:17.121,,-1008,127,-243
12:39:17.122,,-1008,127,-243
12:39:17.123,,-1008,127,-243
12:39:17.125,,-1008,127,-243
12:39:17.126,,-1008,127,-243
12:39:17.127,,-1008,127,-243
12:39:17.129,,-1020,70,-273
12:39:17.130,,-1020,70,-273
12:39:17.131,,-1020,70,-273
12:39:17.133,,-1020,70,-273
12:39:17.141,,-1044,74,-287
12:39:17.151,,-1059,135,-266
12:39:17.161,,-1052,152,-224
12:39:17.171,,-1029,145,-246
12:39:17.181,,-1022,169,-299
12:39:17.191,,-1036,193,-336
12:39:17.201,,-1049,222,-337
12:39:17.211,,-1011,250,-328
12:39:17.221,,-1001,128,-298
12:39:17.231,,-1099,92,-286
12:39:17.241,,-1142,41,-314
12:39:17.251,,-1175,-3,-353
12:39:17.261,,-1206,-24,-397
12:39:17.271,,-1208,-7,-441
12:39:17.281,,-1198,52,-490
12:39:17.291,,-1172,99,-520
12:39:17.301,,-1106,153,-564
12:39:17.311,,-1033,192,-632
12:39:17.321,,-1013,184,-643
12:39:17.331,,-1064,164,-673
12:39:17.341,,-1146,154,-713
12:39:17.351,,-1259,107,-756
12:39:17.361,,-1197,112,-799
12:39:17.371,,-1134,101,-829
12:39:17.381,,-1108,67,-801
12:39:17.391,,-1081,63,-770
12:39:17.401,,-1080,48,-832
12:39:17.411,,-1091,21,-964
12:39:17.421,,-1043,64,-1063
12:39:17.431,,-976,106,-1145
12:39:17.441,,-929,205,-1211
12:39:17.451,,-900,270,-1210
12:39:17.461,,-908,267,-1146
12:39:17.471,,-934,289,-1061
12:39:17.481,,-975,383,-1032
12:39:17.491,,-943,313,-1028
12:39:17.501,,-905,202,-1023
12:39:17.511,,-833,188,-1038
12:39:17.521,,-761,164,-1091
12:39:17.531,,-700,139,-1110
12:39:17.541,,-642,125,-1142
12:39:17.551,,-606,75,-1155
12:39:17.561,,-599,60,-1146
12:39:17.571,,-574,90,-1107
12:39:17.581,,-514,92,-1090
12:39:17.591,,-469,85,-1077
12:39:17.601,,-410,60,-1054
12:39:17.611,,-325,-5,-1108
12:39:17.621,,-315,-11,-1100
12:39:17.631,,-302,-14,-1089
12:39:17.641,,-251,10,-1100
12:39:17.651,,-185,33,-1101
12:39:17.661,,-162,45,-1115
12:39:17.671,,-149,43,-1060
12:39:17.681,,-127,40,-1005
12:39:17.691,,-117,-18,-958
12:39:17.701,,-115,-27,-910
12:39:17.711,,-110,-24,-908
12:39:17.721,,-68,-12,-946
12:39:17.731,,-1,11,-1017
12:39:17.741,,66,30,-990
12:39:17.751,,88,10,-945
12:39:17.761,,87,-44,-906
12:39:17.771,,59,-75,-840
12:39:17.781,,43,-110,-768
12:39:17.791,,22,-124,-718
12:39:17.801,,61,-123,-696
12:39:17.811,,146,-103,-713
12:39:17.821,,207,-65,-736
12:39:17.831,,273,-49,-775
12:39:17.841,,331,-48,-812
12:39:17.851,,364,-67,-856
12:39:17.861,,364,-151,-841
12:39:17.871,,300,-265,-801
12:39:17.881,,286,-307,-755
12:39:17.891,,315,-332,-706
12:39:17.901,,345,-296,-703
12:39:17.911,,356,-262,-705
12:39:17.921,,393,-232,-692
12:39:17.931,,471,-196,-701
12:39:17.941,,521,-199,-704
12:39:17.951,,512,-227,-693
12:39:17.961,,479,-264,-676
12:39:17.971,,463,-302,-647
12:39:17.981,,444,-339,-597
12:39:17.991,,435,-417,-571
12:39:18.001,,509,-426,-592
12:39:18.011,,558,-427,-608
12:39:18.021,,598,-363,-623
12:39:18.031,,622,-308,-603
12:39:18.041,,653,-235,-574
12:39:18.051,,670,-211,-544
12:39:18.061,,657,-218,-492
12:39:18.071,,634,-224,-443
12:39:18.081,,619,-237,-416
12:39:18.091,,617,-262,-386
12:39:18.101,,626,-265,-351
12:39:18.111,,651,-267,-349
12:39:18.121,,728,-309,-420
12:39:18.131,,734,-308,-447
12:39:18.141,,759,-289,-472
12:39:18.151,,772,-268,-484
12:39:18.161,,772,-255,-449
12:39:18.171,,768,-260,-415
12:39:18.181,,746,-247,-364
12:39:18.191,,754,-237,-307
12:39:18.201,,774,-268,-299
12:39:18.211,,786,-281,-263
12:39:18.221,,783,-292,-228
12:39:18.231,,798,-283,-266
12:39:18.241,,821,-295,-302
12:39:18.251,,803,-273,-296
12:39:18.261,,800,-293,-313
12:39:18.271,,856,-314,-363
12:39:18.281,,895,-347,-397
12:39:18.291,,889,-361,-382
12:39:18.301,,844,-352,-316
12:39:18.311,,824,-336,-229
12:39:18.321,,801,-290,-162
12:39:18.331,,801,-265,-140
12:39:18.341,,801,-233,-122
12:39:18.351,,784,-210,-150
12:39:18.361,,786,-237,-189
12:39:18.371,,827,-281,-246
12:39:18.381,,859,-334,-350
12:39:18.391,,828,-328,-344
12:39:18.401,,775,-293,-285
12:39:18.411,,738,-257,-235
12:39:18.421,,707,-214,-197
12:39:18.431,,650,-172,-159
12:39:18.441,,628,-165,-185
12:39:18.451,,582,-155,-231
12:39:18.569,,870,-596,-250
12:39:18.570,,870,-596,-250
12:39:18.572,,870,-596,-250
12:39:18.573,,870,-596,-250
12:39:18.574,,870,-596,-250
12:39:18.576,,884,-602,-180
12:39:18.577,,884,-602,-180
12:39:18.579,,884,-602,-180
12:39:18.580,,884,-602,-180
12:39:18.581,,884,-602,-180
12:39:18.583,,884,-602,-180
12:39:18.584,,884,-602,-180
12:39:18.585,,878,-569,-115
12:39:18.591,,878,-569,-115
12:39:18.601,,865,-520,-68
12:39:18.611,,863,-460,-60
12:39:18.621,,867,-414,-81
12:39:18.631,,877,-427,-160
12:39:18.641,,907,-456,-181
12:39:18.651,,866,-493,-218
12:39:18.661,,858,-528,-245
12:39:18.671,,895,-535,-242
12:39:18.681,,947,-501,-250
12:39:18.691,,988,-486,-264
12:39:18.701,,980,-450,-271
12:39:18.711,,917,-384,-242
12:39:18.721,,878,-325,-195
12:39:18.731,,863,-294,-138
12:39:18.741,,851,-281,-107
12:39:18.751,,857,-286,-73
12:39:18.761,,853,-287,-52
12:39:18.771,,840,-323,-60
12:39:18.781,,835,-331,-55
12:39:18.791,,842,-335,-67
12:39:18.801,,843,-331,-71
12:39:18.811,,839,-292,-57
12:39:18.821,,860,-260,-40
12:39:18.831,,870,-243,-32
12:39:18.841,,871,-242,-9
12:39:18.851,,918,-259,6
12:39:18.861,,921,-291,11
12:39:18.871,,861,-318,1
12:39:18.881,,793,-342,8
12:39:18.891,,825,-348,19
12:39:18.901,,870,-312,30
12:39:18.911,,905,-283,22
12:39:18.921,,916,-271,16
12:39:18.931,,921,-265,-5
12:39:18.941,,935,-267,-24
12:39:18.951,,930,-271,-50
12:39:18.961,,920,-290,-76
12:39:18.971,,924,-291,-57
12:39:18.981,,898,-265,-12
12:39:18.991,,854,-235,8
12:39:19.001,,850,-204,8
12:39:19.011,,861,-160,19
12:39:19.021,,889,-95,36
12:39:19.031,,905,-77,46
12:39:19.041,,898,-51,62
12:39:19.051,,890,-42,78
12:39:19.061,,903,-55,89
12:39:19.071,,966,-90,108
12:39:19.081,,1059,-152,99
12:39:19.091,,1056,-216,74
12:39:19.101,,998,-296,15
12:39:19.111,,963,-360,0
12:39:19.121,,927,-369,29
12:39:19.131,,909,-363,101
12:39:19.141,,886,-333,162
12:39:19.151,,931,-286,209
12:39:19.161,,975,-264,230
12:39:19.171,,1025,-259,188
12:39:19.181,,1060,-272,171
12:39:19.191,,1052,-267,196
12:39:19.201,,1031,-247,210
12:39:19.211,,999,-236,212
12:39:19.221,,970,-231,231
12:39:19.231,,956,-214,268
12:39:19.241,,955,-195,312
12:39:19.251,,981,-168,349
12:39:19.261,,979,-134,372
12:39:19.271,,964,-113,399
12:39:19.281,,943,-136,360
12:39:19.291,,932,-151,303
12:39:19.301,,917,-168,265
12:39:19.311,,917,-194,246
12:39:19.321,,947,-193,233
12:39:19.331,,980,-198,226
12:39:19.341,,998,-204,235
12:39:19.351,,1003,-202,247
12:39:19.361,,990,-186,249
12:39:19.371,,964,-175,250
12:39:19.381,,968,-202,231
12:39:19.391,,972,-222,154
12:39:19.401,,963,-262,9
12:39:19.411,,984,-241,-13
12:39:19.421,,1019,-214,0
12:39:19.431,,1018,-180,26
12:39:19.441,,1006,-151,51
12:39:19.451,,1009,-126,67
12:39:19.461,,1014,-116,48
12:39:19.471,,1017,-138,18
12:39:19.481,,1015,-172,-4
12:39:19.491,,998,-190,-12
12:39:19.501,,979,-195,-8
12:39:19.511,,962,-190,-9
12:39:19.521,,958,-178,-16
12:39:19.531,,976,-164,2
12:39:19.541,,975,-155,17
12:39:19.551,,993,-147,26
12:39:19.561,,1014,-153,10
12:39:19.571,,1015,-175,-16
12:39:19.581,,998,-185,-42
12:39:19.591,,986,-210,-65
12:39:19.601,,983,-211,-68
12:39:19.611,,983,-185,-63
12:39:19.621,,987,-159,-38
12:39:19.631,,996,-145,-8
12:39:19.641,,988,-143,19
12:39:19.651,,975,-141,31
12:39:19.661,,985,-140,56
12:39:19.671,,981,-136,78
12:39:19.681,,981,-137,91
12:39:19.691,,976,-147,94
12:39:19.701,,968,-172,89
12:39:19.711,,964,-214,48
12:39:19.721,,958,-237,32
12:39:19.731,,975,-227,38
12:39:19.741,,984,-198,46
12:39:19.751,,995,-175,64
12:39:19.761,,1006,-161,83
12:39:19.771,,1005,-150,94
12:39:19.781,,996,-137,103
12:39:19.791,,968,-131,130
12:39:19.801,,970,-127,133
12:39:19.811,,971,-140,127
12:39:19.821,,962,-162,114
12:39:19.831,,968,-165,97
12:39:19.841,,986,-164,88
12:39:19.851,,985,-162,87
12:39:19.861,,986,-154,90
12:39:19.871,,973,-131,102
12:39:19.881,,963,-119,111
12:39:19.891,,970,-120,115
12:39:19.901,,981,-112,114
12:39:19.911,,965,-100,126
12:39:19.921,,964,-92,128
12:39:19.931,,980,-99,114
12:39:19.941,,988,-107,94
12:39:19.951,,983,-103,80
12:39:19.961,,983,-91,84
12:39:19.971,,985,-77,97
12:39:19.981,,982,-61,104
12:39:20.104,,1013,-40,85
12:39:20.105,,1013,-40,85
12:39:20.107,,1025,-46,76
12:39:20.108,,1025,-46,76
12:39:20.109,,1025,-46,76
12:39:20.111,,1025,-46,76
12:39:20.112,,1025,-46,76
12:39:20.113,,1025,-46,76
12:39:20.115,,1025,-46,76
12:39:20.116,,1026,-57,67
12:39:20.117,,1026,-57,67
12:39:20.119,,1026,-57,67
12:39:20.120,,1026,-57,67
12:39:20.122,,1026,-57,67
12:39:20.131,,1022,-63,57
12:39:20.141,,1019,-74,56
12:39:20.151,,1009,-73,61
12:39:20.161,,996,-68,56
12:39:20.171,,987,-64,51
12:39:20.181,,1010,-51,49
12:39:20.191,,1006,-39,61
12:39:20.201,,1003,-28,71
12:39:20.211,,1011,-21,78
12:39:20.221,,1012,-18,82
12:39:20.231,,1014,-16,87
12:39:20.241,,1013,-13,92
12:39:20.251,,1001,-7,99
12:39:20.261,,995,-14,96
12:39:20.271,,1000,-34,91
12:39:20.281,,1005,-45,89
12:39:20.291,,1002,-40,91
12:39:20.301,,998,-23,89
12:39:20.311,,1002,-9,93
12:39:20.321,,1009,4,88
12:39:20.331,,1010,10,79
12:39:20.341,,1016,7,73
12:39:20.351,,1015,-4,66
12:39:20.361,,999,-9,58
12:39:20.371,,989,-7,63
12:39:20.381,,988,-1,69
12:39:20.391,,989,7,74
12:39:20.401,,1000,0,75
12:39:20.411,,1005,-7,75
12:39:20.421,,1006,-10,81
12:39:20.431,,980,-2,90
12:39:20.441,,973,3,101
12:39:20.451,,979,10,110
12:39:20.461,,979,12,116
12:39:20.471,,971,4,108
12:39:20.481,,977,-5,107
12:39:20.491,,991,-17,101
12:39:20.501,,990,-30,84
12:39:20.511,,982,-32,68
12:39:20.521,,984,-32,70
12:39:20.531,,988,-22,75
12:39:20.541,,993,-14,83
12:39:20.551,,1001,-20,89
12:39:20.561,,981,-38,90
12:39:20.571,,986,-46,87
12:39:20.581,,985,-48,82
12:39:20.591,,976,-46,80
12:39:20.601,,987,-44,79
12:39:20.611,,995,-39,80
12:39:20.621,,991,-39,79
12:39:20.631,,985,-50,79
12:39:20.641,,971,-55,73
12:39:20.651,,972,-54,64
12:39:20.661,,983,-51,62
12:39:20.671,,992,-47,61
12:39:20.681,,991,-40,62
12:39:20.691,,993,-33,63
12:39:20.701,,988,-27,58
12:39:20.711,,982,-20,58
12:39:20.721,,992,-12,64
12:39:20.731,,1007,-7,60
12:39:20.741,,1000,-7,55
12:39:20.751,,992,-18,48
12:39:20.761,,991,-25,37
12:39:20.771,,994,-26,17
12:39:20.781,,1003,-28,9
12:39:20.791,,1010,-22,12
12:39:20.801,,1016,-12,18
12:39:20.811,,1025,-14,25
12:39:20.821,,1020,-14,23
12:39:20.831,,1007,-20,27
12:39:20.841,,1007,-26,25
12:39:20.851,,1001,-25,23
12:39:20.861,,998,-23,15
12:39:20.871,,1004,-30,13
12:39:20.881,,1023,-34,16
12:39:20.891,,1019,-31,21
12:39:20.901,,1008,-18,26
12:39:20.911,,1007,-6,41
12:39:20.921,,1013,1,50
12:39:20.931,,1018,7,56
12:39:20.941,,1029,-6,48
12:39:20.951,,1024,-11,43
12:39:20.961,,1022,-7,36
12:39:20.971,,1021,2,31
12:39:20.981,,1020,15,29
12:39:20.991,,1032,25,25
12:39:21.001,,1046,25,23
12:39:21.011,,1038,28,26
12:39:21.021,,1033,29,24
12:39:21.031,,1028,29,29
12:39:21.041,,1015,34,37
12:39:21.051,,1006,42,44
12:39:21.061,,1017,48,52
12:39:21.071,,1017,49,54
12:39:21.081,,998,54,61
12:39:21.091,,983,61,68
12:39:21.101,,976,58,69
12:39:21.111,,980,52,67
12:39:21.121,,1004,44,68
12:39:21.131,,1006,29,60
12:39:21.141,,984,14,49
12:39:21.151,,975,10,49
12:39:21.161,,976,28,59
12:39:21.171,,982,52,72
12:39:21.181,,990,66,76
12:39:21.191,,991,70,76
12:39:21.201,,972,56,65
12:39:21.211,,961,52,59
12:39:21.221,,955,48,43
12:39:21.231,,956,46,33
12:39:21.241,,965,56,15
12:39:21.251,,972,67,0
12:39:21.261,,971,71,0
12:39:21.271,,960,76,3
12:39:21.281,,959,77,12
12:39:21.291,,973,67,25
12:39:21.301,,970,49,24
12:39:21.311,,957,31,19
12:39:21.321,,950,19,19
12:39:21.331,,964,11,10
12:39:21.341,,965,0,9
12:39:21.351,,972,-16,12
12:39:21.361,,990,-34,13
12:39:21.371,,1015,-58,22
12:39:21.381,,1034,-81,24
12:39:21.391,,1021,-97,22
12:39:21.401,,999,-108,30
12:39:21.411,,980,-106,42
12:39:21.421,,974,-98,46
12:39:21.431,,983,-97,51
12:39:21.441,,990,-93,51
12:39:21.451,,988,-81,45
12:39:21.461,,1003,-51,42
12:39:21.471,,1004,-38,37
12:39:21.481,,1006,-25,23
12:39:21.491,,1003,-16,20
12:39:21.501,,989,-3,23
12:39:21.511,,981,0,24
12:39:21.521,,984,-5,22
12:39:21.531,,988,-4,19
12:39:21.541,,990,-1,20
12:39:21.551,,1012,-1,30
12:39:21.561,,1019,-7,34
12:39:21.571,,994,-13,36
12:39:21.581,,987,-20,49
12:39:21.591,,1000,-32,61
12:39:21.601,,988,-30,64
12:39:21.611,,977,-18,66
12:39:21.621,,985,3,61
12:39:21.740,,1029,-80,97
12:39:21.741,,1029,-80,97
12:39:21.743,,1029,-80,97
12:39:21.744,,1029,-80,97
12:39:21.745,,1029,-80,97
12:39:21.747,,1029,-80,97
12:39:21.748,,1024,-86,96
12:39:21.749,,1024,-86,96
12:39:21.751,,1024,-86,96
12:39:21.752,,1024,-86,96
12:39:21.753,,1024,-86,96
12:39:21.755,,1024,-86,96
12:39:21.756,,1024,-86,96
12:39:21.761,,1005,-84,99
12:39:21.771,,984,-70,103
12:39:21.781,,980,-45,107
12:39:21.791,,1006,-26,114
12:39:21.801,,1036,-24,113
12:39:21.811,,1041,-32,108
12:39:21.821,,1033,-43,95
12:39:21.831,,1022,-54,93
12:39:21.841,,986,-47,84
12:39:21.851,,966,-37,79
12:39:21.861,,966,-22,81
12:39:21.871,,986,-12,85
12:39:21.881,,1002,-8,90
12:39:21.891,,999,-8,89
12:39:21.901,,982,-11,88
12:39:21.911,,971,-15,92
12:39:21.921,,976,-19,95
12:39:21.931,,989,-25,104
12:39:21.941,,994,-39,102
12:39:21.951,,982,-48,94
12:39:21.961,,983,-51,90
12:39:21.971,,1010,-56,65
12:39:21.981,,1035,-76,49
12:39:21.991,,1036,-84,39
12:39:22.001,,1034,-83,32
12:39:22.011,,1026,-77,25
12:39:22.021,,1028,-62,29
12:39:22.031,,1034,-49,35
12:39:22.041,,1023,-45,43
12:39:22.051,,1017,-47,41
12:39:22.061,,1015,-48,30
12:39:22.071,,1014,-38,24
12:39:22.081,,1028,-21,24
12:39:22.091,,1054,-20,23
12:39:22.101,,1029,-27,46
12:39:22.111,,1018,-25,59
12:39:22.121,,1003,-17,70
12:39:22.131,,989,-5,78
12:39:22.141,,1009,-5,81
12:39:22.151,,1009,-12,80
12:39:22.161,,987,-17,78
12:39:22.171,,978,-20,75
12:39:22.181,,985,-21,72
12:39:22.191,,994,-18,55
12:39:22.201,,1015,-42,37
12:39:22.211,,1017,-71,23
12:39:22.221,,1004,-93,36
12:39:22.231,,965,-109,49
12:39:22.241,,943,-102,58
12:39:22.251,,946,-94,56
12:39:22.261,,963,-81,50
12:39:22.271,,983,-77,40
12:39:22.281,,978,-79,26
12:39:22.291,,975,-83,5
12:39:22.301,,989,-89,-5
12:39:22.311,,983,-78,0
12:39:22.321,,986,-68,14
12:39:22.331,,1000,-76,44
12:39:22.341,,994,-92,77
12:39:22.351,,993,-133,103
12:39:22.361,,971,-139,105
12:39:22.371,,963,-122,102
12:39:22.381,,962,-101,111
12:39:22.391,,985,-96,110
12:39:22.401,,1024,-104,96
12:39:22.411,,1034,-110,73
12:39:22.421,,1023,-107,59
12:39:22.431,,1010,-93,49
12:39:22.441,,1005,-68,35
12:39:22.451,,1001,-40,24
12:39:22.461,,1018,-25,21
12:39:22.471,,1044,-33,14
12:39:22.481,,1037,-77,-6
12:39:22.491,,1032,-88,-4
12:39:22.501,,1034,-94,8
12:39:22.511,,1033,-94,23
12:39:22.521,,1027,-98,31
12:39:22.531,,1016,-102,35
12:39:22.541,,1009,-92,45
12:39:22.551,,1004,-71,67
12:39:22.561,,1006,-49,84
12:39:22.571,,1001,-39,99
12:39:22.581,,986,-38,106
12:39:22.591,,978,-49,106
12:39:22.601,,970,-57,102
12:39:22.611,,971,-56,105
12:39:22.621,,986,-59,99
12:39:22.631,,997,-71,87
12:39:22.641,,984,-81,69
12:39:22.651,,979,-88,61
12:39:22.661,,980,-91,55
12:39:22.671,,981,-86,50
12:39:22.681,,985,-78,45
12:39:22.691,,994,-72,46
12:39:22.701,,1003,-75,46
12:39:22.711,,996,-83,41
12:39:22.721,,985,-94,36
12:39:22.731,,984,-110,31
12:39:22.741,,954,-111,20
12:39:22.750,,964,-106,17
12:39:22.761,,990,-94,22
12:39:22.771,,1008,-96,24
12:39:22.780,,996,-102,25
12:39:22.791,,983,-112,26
12:39:22.801,,987,-128,31
12:39:22.810,,982,-136,24
12:39:22.821,,977,-140,15
12:39:22.831,,992,-150,10
12:39:22.840,,1003,-150,15
12:39:22.851,,1006,-150,19
12:39:22.861,,996,-149,26
12:39:22.870,,977,-127,34
12:39:22.881,,980,-117,32
12:39:22.891,,983,-111,27
12:39:22.900,,986,-113,25
12:39:22.911,,982,-114,33
12:39:22.920,,970,-113,41
12:39:22.930,,960,-112,52
12:39:22.941,,952,-109,59
12:39:22.950,,943,-97,65
12:39:22.960,,964,-92,68
12:39:22.971,,999,-99,69
12:39:22.980,,1012,-113,57
12:39:22.990,,1007,-129,38
12:39:23.000,,987,-113,40
12:39:23.010,,992,-92,54
12:39:23.020,,1003,-74,66
12:39:23.030,,1008,-64,72
12:39:23.040,,1015,-59,62
12:39:23.050,,1025,-60,56
12:39:23.060,,1039,-57,48
12:39:23.070,,1036,-53,44
12:39:23.080,,1022,-49,46
12:39:23.090,,1018,-43,49
12:39:23.100,,1016,-32,48
12:39:23.110,,1015,-23,47
12:39:23.120,,1015,-8,58
12:39:23.130,,1007,-3,59
12:39:23.140,,1002,-7,61
12:39:23.150,,993,-15,60
12:39:23.160,,995,-23,57
12:39:23.170,,995,-34,52
12:39:23.180,,994,-40,53
12:39:23.190,,1000,-45,49
12:39:23.200,,1007,-51,45
12:39:23.210,,1009,-55,41
12:39:23.334,,1000,-64,37
12:39:23.335,,1000,-64,37
12:39:23.337,,1000,-64,37
12:39:23.338,,1000,-64,37
12:39:23.339,,1000,-64,37
12:39:23.341,,1000,-64,37
12:39:23.342,,1000,-64,37
12:39:23.343,,1006,-61,45
12:39:23.345,,1006,-61,45
12:39:23.346,,1006,-61,45
12:39:23.348,,1006,-61,45
12:39:23.349,,1006,-61,45
12:39:23.350,,1006,-61,45
12:39:23.352,,1006,-61,45
12:39:23.360,,1002,-63,51
12:39:23.370,,995,-59,53
12:39:23.380,,1004,-57,37
12:39:23.390,,993,-54,31
12:39:23.400,,999,-53,32
12:39:23.410,,1004,-49,34
12:39:23.420,,999,-47,33
12:39:23.430,,994,-51,36
12:39:23.440,,993,-60,33
12:39:23.450,,996,-69,24
12:39:23.460,,994,-79,20
12:39:23.470,,989,-80,32
12:39:23.480,,994,-80,45
12:39:23.490,,986,-79,61
12:39:23.500,,976,-68,72
12:39:23.510,,997,-48,73
12:39:23.520,,1003,-53,62
12:39:23.530,,987,-63,52
12:39:23.540,,987,-78,45
12:39:23.550,,994,-79,43
12:39:23.560,,992,-64,45
12:39:23.570,,1007,-51,55
12:39:23.580,,1022,-50,56
12:39:23.590,,1008,-55,52
12:39:23.600,,996,-59,45
12:39:23.610,,1003,-59,49
12:39:23.620,,1002,-54,49
12:39:23.630,,1003,-50,45
12:39:23.640,,1004,-48,39
12:39:23.650,,1004,-48,37
12:39:23.660,,1012,-53,31
12:39:23.670,,1014,-57,19
12:39:23.680,,1009,-60,15
12:39:23.690,,1002,-52,18
12:39:23.700,,997,-40,27
12:39:23.710,,994,-35,35
12:39:23.720,,1002,-37,35
12:39:23.730,,1008,-45,36
12:39:23.740,,993,-55,36
12:39:23.750,,981,-56,44
12:39:23.760,,987,-50,57
12:39:23.770,,999,-35,54
12:39:23.780,,993,-39,50
12:39:23.790,,998,-46,49
12:39:23.800,,998,-42,48
12:39:23.810,,997,-33,49
12:39:23.820,,992,-25,59
12:39:23.830,,985,-26,69
12:39:23.840,,993,-37,76
12:39:23.850,,983,-45,78
12:39:23.860,,981,-49,72
12:39:23.870,,1001,-47,72
12:39:23.880,,1002,-41,70
12:39:23.890,,1000,-35,52
12:39:23.900,,1008,-37,48
12:39:23.910,,999,-30,48
12:39:23.920,,997,-19,44
12:39:23.930,,1007,-15,43
12:39:23.940,,1008,-8,46
12:39:23.950,,1003,-5,53
12:39:23.960,,1011,-8,60
12:39:23.970,,1010,-13,66
12:39:23.980,,1006,-20,69
12:39:23.990,,991,-22,67
12:39:24.000,,985,-19,65
12:39:24.010,,981,-3,65
12:39:24.020,,1004,17,55
12:39:24.030,,1009,11,41
12:39:24.040,,1015,4,23
12:39:24.050,,1011,0,11
12:39:24.060,,1004,0,10
12:39:24.070,,1006,-1,20
12:39:24.080,,1010,-5,32
12:39:24.090,,1005,-19,44
12:39:24.100,,996,-39,47
12:39:24.110,,988,-43,49
12:39:24.120,,987,-34,50
12:39:24.130,,1003,-27,50
12:39:24.140,,1015,-24,42
12:39:24.150,,1006,-40,27
12:39:24.160,,1000,-50,22
12:39:24.170,,1001,-53,22
12:39:24.180,,1000,-44,22
12:39:24.190,,1005,-33,27
12:39:24.200,,1005,-20,34
12:39:24.210,,1004,-21,34
12:39:24.220,,997,-27,32
12:39:24.230,,991,-30,33
12:39:24.240,,1001,-35,33
12:39:24.250,,1006,-36,39
12:39:24.260,,1003,-33,41
12:39:24.270,,1003,-34,41
12:39:24.280,,999,-35,38
12:39:24.290,,996,-33,43
12:39:24.300,,991,-31,46
12:39:24.310,,996,-31,50
12:39:24.320,,1001,-35,49
12:39:24.330,,993,-38,51
12:39:24.340,,996,-37,59
12:39:24.350,,997,-40,65
12:39:24.360,,992,-42,65
12:39:24.370,,983,-39,57
12:39:24.380,,985,-38,50
12:39:24.390,,1004,-38,42
12:39:24.400,,1010,-39,30
12:39:24.410,,991,-37,38
12:39:24.420,,992,-34,48
12:39:24.430,,1000,-33,59
12:39:24.440,,1003,-45,61
12:39:24.450,,1005,-59,56
12:39:24.460,,1008,-68,53
12:39:24.470,,1007,-63,51
12:39:24.480,,996,-49,58
12:39:24.490,,1002,-33,69
12:39:24.500,,1016,-21,77
12:39:24.510,,1020,-22,78
12:39:24.520,,1019,-27,76
12:39:24.530,,1017,-29,75
12:39:24.540,,1011,-22,78
12:39:24.550,,1004,-11,86
12:39:24.560,,994,-1,95
12:39:24.570,,996,2,99
12:39:24.580,,1000,0,99
12:39:24.590,,1008,-5,93
12:39:24.600,,1013,-11,91
12:39:24.610,,1013,-11,89
12:39:24.620,,1016,-8,91
12:39:24.630,,1013,-1,95
12:39:24.640,,1003,7,94
12:39:24.650,,1009,12,96
12:39:24.660,,1031,-24,83
12:39:24.670,,1016,-38,83
12:39:24.680,,1011,-39,91
12:39:24.690,,1013,-30,97
12:39:24.700,,1014,-19,109
12:39:24.710,,1002,-3,112
12:39:24.720,,994,1,116
12:39:24.730,,990,5,114
12:39:24.740,,994,4,108
12:39:24.750,,996,2,101
12:39:24.760,,992,6,97
12:39:24.770,,993,10,88
12:39:24.780,,997,2,78
12:39:24.790,,984,-16,52
12:39:24.800,,996,-23,36
12:39:24.810,,1003,-17,29
12:39:24.820,,1010,-4,25
12:39:24.938,,1053,-79,-106
12:39:24.940,,1041,-85,-106
12:39:24.941,,1041,-85,-106
12:39:24.942,,1041,-85,-106
12:39:24.944,,1041,-85,-106
12:39:24.945,,1041,-85,-106
12:39:24.947,,1041,-85,-106
12:39:24.948,,1030,-77,-110
12:39:24.949,,1030,-77,-110
12:39:24.951,,1030,-77,-110
12:39:24.952,,1030,-77,-110
12:39:24.953,,1030,-77,-110
12:39:24.955,,1030,-77,-110
12:39:24.960,,1031,-75,-108
12:39:24.970,,1033,-86,-104
12:39:24.980,,1009,-108,-111
12:39:24.990,,987,-152,-121
12:39:25.000,,973,-194,-130
12:39:25.010,,945,-222,-134
12:39:25.020,,931,-248,-134
12:39:25.030,,924,-270,-131
12:39:25.040,,907,-284,-126
12:39:25.050,,893,-325,-121
12:39:25.060,,907,-357,-137
12:39:25.070,,924,-409,-168
12:39:25.080,,913,-460,-196
12:39:25.090,,889,-507,-216
12:39:25.100,,868,-543,-207
12:39:25.110,,838,-545,-184
12:39:25.120,,836,-531,-144
12:39:25.130,,856,-513,-101
12:39:25.140,,876,-511,-65
12:39:25.150,,866,-514,-60
12:39:25.160,,858,-528,-67
12:39:25.170,,866,-552,-70
12:39:25.180,,848,-576,-76
12:39:25.190,,842,-570,-76
12:39:25.200,,849,-551,-85
12:39:25.210,,848,-520,-81
12:39:25.220,,852,-475,-61
12:39:25.230,,868,-435,-45
12:39:25.240,,893,-425,-37
12:39:25.250,,913,-434,-24
12:39:25.260,,903,-454,-22
12:39:25.270,,893,-484,-30
12:39:25.280,,890,-496,-37
12:39:25.290,,892,-485,-23
12:39:25.300,,883,-404,35
12:39:25.310,,865,-361,68
12:39:25.320,,869,-326,95
12:39:25.330,,881,-293,111
12:39:25.340,,892,-273,120
12:39:25.350,,904,-260,124
12:39:25.360,,903,-246,117
12:39:25.370,,893,-236,109
12:39:25.380,,910,-227,106
12:39:25.390,,927,-208,101
12:39:25.400,,932,-186,102
12:39:25.410,,941,-163,107
12:39:25.420,,945,-136,106
12:39:25.430,,965,-86,97
12:39:25.440,,967,-68,96
12:39:25.450,,968,-66,92
12:39:25.460,,976,-70,81
12:39:25.470,,980,-62,78
12:39:25.480,,990,-52,91
12:39:25.490,,1009,-50,102
12:39:25.500,,1004,-51,109
12:39:25.510,,984,-45,107
12:39:25.520,,986,-30,96
12:39:25.530,,990,-10,87
12:39:25.540,,987,12,75
12:39:25.550,,987,29,53
12:39:25.560,,1010,83,33
12:39:25.570,,1018,111,43
12:39:25.580,,1024,127,52
12:39:25.590,,1010,130,55
12:39:25.600,,1001,125,49
12:39:25.610,,991,121,46
12:39:25.620,,977,126,42
12:39:25.630,,961,132,39
12:39:25.640,,946,129,39
12:39:25.650,,955,138,39
12:39:25.660,,957,156,42
12:39:25.670,,959,170,48
12:39:25.680,,956,180,54
12:39:25.690,,997,217,37
12:39:25.700,,1014,238,31
12:39:25.710,,1016,251,33
12:39:25.720,,1022,260,35
12:39:25.730,,1025,261,31
12:39:25.740,,1020,259,24
12:39:25.750,,1007,254,13
12:39:25.760,,1005,255,-2
12:39:25.770,,1007,260,-24
12:39:25.780,,1017,269,-51
12:39:25.790,,1026,280,-72
12:39:25.800,,1019,283,-90
12:39:25.810,,1031,274,-97
12:39:25.820,,1030,254,-99
12:39:25.830,,1017,251,-93
12:39:25.840,,1019,250,-71
12:39:25.850,,1016,253,-45
12:39:25.860,,1011,252,-22
12:39:25.870,,1014,255,-1
12:39:25.880,,1017,250,16
12:39:25.890,,1026,225,30
12:39:25.900,,1032,193,42
12:39:25.910,,1030,171,47
12:39:25.920,,1028,155,58
12:39:25.930,,1007,141,68
12:39:25.940,,976,141,83
12:39:25.950,,942,170,82
12:39:25.960,,947,183,78
12:39:25.970,,956,195,66
12:39:25.980,,960,196,52
12:39:25.990,,971,185,52
12:39:26.000,,996,177,58
12:39:26.010,,1019,172,63
12:39:26.020,,1032,164,74
12:39:26.030,,1033,153,91
12:39:26.040,,1030,140,104
12:39:26.050,,1020,122,121
12:39:26.060,,1030,107,139
12:39:26.070,,1047,74,151
12:39:26.080,,1025,62,147
12:39:26.090,,1027,61,142
12:39:26.100,,1031,77,131
12:39:26.110,,1044,102,124
12:39:26.120,,1065,113,121
12:39:26.130,,1064,108,121
12:39:26.140,,1053,90,111
12:39:26.150,,1052,66,87
12:39:26.160,,1046,58,60
12:39:26.170,,1051,50,36
12:39:26.180,,1055,32,20
12:39:26.190,,1038,25,21
12:39:26.200,,1031,15,40
12:39:26.210,,1024,13,40
12:39:26.220,,1017,15,37
12:39:26.230,,1025,11,37
12:39:26.240,,1038,-4,26
12:39:26.250,,1025,-27,2
12:39:26.260,,1022,-50,-21
12:39:26.270,,1020,-62,-38
12:39:26.280,,1015,-60,-51
12:39:26.290,,1022,-56,-69
12:39:26.300,,1021,-51,-75
12:39:26.310,,1032,-52,-83
12:39:26.320,,1034,-61,-85
12:39:26.330,,1011,-62,-83
12:39:26.340,,1008,-65,-87
12:39:26.350,,1005,-66,-95
12:39:26.360,,1019,-76,-105
12:39:26.370,,1035,-97,-112
12:39:26.494,,944,-175,-49
12:39:26.495,,944,-175,-49
12:39:26.496,,944,-175,-49
12:39:26.498,,961,-183,-52
12:39:26.499,,961,-183,-52
12:39:26.500,,961,-183,-52
12:39:26.502,,961,-183,-52
12:39:26.503,,961,-183,-52
12:39:26.504,,961,-183,-52
12:39:26.506,,961,-183,-52
12:39:26.507,,964,-199,-56
12:39:26.509,,964,-199,-56
12:39:26.510,,964,-199,-56
12:39:26.511,,964,-199,-56
12:39:26.520,,952,-216,-59
12:39:26.530,,950,-229,-66
12:39:26.540,,945,-239,-64
12:39:26.550,,931,-240,-66
12:39:26.560,,922,-235,-68
12:39:26.570,,930,-226,-62
12:39:26.580,,946,-227,-52
12:39:26.590,,948,-253,-49
12:39:26.600,,945,-261,-46
12:39:26.610,,944,-260,-38
12:39:26.620,,940,-251,-30
12:39:26.630,,954,-246,-32
12:39:26.640,,964,-246,-38
12:39:26.650,,965,-256,-41
12:39:26.660,,967,-254,-46
12:39:26.670,,969,-236,-32
12:39:26.680,,985,-218,-50
12:39:26.690,,990,-209,-61
12:39:26.700,,993,-205,-56
12:39:26.710,,987,-197,-57
12:39:26.720,,988,-147,-67
12:39:26.730,,997,-148,-79
12:39:26.740,,988,-157,-90
12:39:26.750,,987,-157,-96
12:39:26.760,,993,-149,-98
12:39:26.770,,999,-143,-96
12:39:26.780,,1006,-135,-88
12:39:26.790,,1009,-125,-85
12:39:26.800,,1006,-123,-87
12:39:26.810,,1004,-120,-91
12:39:26.820,,992,-112,-88
12:39:26.830,,992,-101,-73
12:39:26.840,,987,-82,-38
12:39:26.850,,962,-77,-29
12:39:26.860,,973,-69,-22
12:39:26.870,,981,-60,-19
12:39:26.880,,987,-53,-24
12:39:26.890,,986,-42,-29
12:39:26.900,,990,-28,-27
12:39:26.910,,996,-25,-24
12:39:26.920,,989,-22,-30
12:39:26.930,,983,-17,-38
12:39:26.940,,989,-17,-50
12:39:26.950,,993,-9,-63
12:39:26.960,,991,9,-78
12:39:26.970,,983,46,-81
12:39:26.980,,985,66,-78
12:39:26.990,,996,85,-76
12:39:27.000,,1009,99,-79
12:39:27.010,,1023,105,-86
12:39:27.020,,1028,113,-90
12:39:27.030,,1028,129,-88
12:39:27.040,,1026,145,-83
12:39:27.050,,1018,162,-78
12:39:27.060,,1017,175,-71
12:39:27.070,,1014,182,-61
12:39:27.080,,1009,190,-53
12:39:27.090,,1007,196,-44
12:39:27.100,,1008,187,-43
12:39:27.110,,1011,176,-49
12:39:27.120,,1012,157,-56
12:39:27.130,,1025,143,-63
12:39:27.140,,1033,134,-66
12:39:27.150,,1025,130,-61
12:39:27.160,,1014,130,-52
12:39:27.170,,1006,128,-45
12:39:27.180,,1011,117,-45
12:39:27.190,,1014,110,-44
12:39:27.200,,1013,115,-46
12:39:27.210,,1018,117,-50
12:39:27.220,,1011,120,-45
12:39:27.230,,998,127,-24
12:39:27.240,,994,123,-19
12:39:27.250,,991,118,-18
12:39:27.260,,990,113,-17
12:39:27.270,,985,110,-16
12:39:27.280,,982,106,-18
12:39:27.290,,980,96,-11
12:39:27.300,,978,87,-2
12:39:27.310,,979,77,5
12:39:27.320,,986,71,11
12:39:27.330,,988,71,4
12:39:27.340,,994,66,-3
12:39:27.350,,990,62,-5
12:39:27.360,,990,69,1
12:39:27.370,,996,69,9
12:39:27.380,,992,71,9
12:39:27.390,,996,74,0
12:39:27.400,,1001,78,-2
12:39:27.410,,1005,72,-5
12:39:27.420,,1001,59,-16
12:39:27.430,,988,50,-29
12:39:27.440,,984,52,-31
12:39:27.450,,988,65,-30
12:39:27.460,,995,82,-25
12:39:27.470,,999,95,-27
12:39:27.480,,992,102,-30
12:39:27.490,,996,83,-29
12:39:27.500,,998,74,-34
12:39:27.510,,999,65,-46
12:39:27.520,,1004,59,-50
12:39:27.530,,1007,58,-51
12:39:27.540,,1005,57,-51
12:39:27.550,,1005,53,-48
12:39:27.560,,1009,46,-45
12:39:27.570,,1016,40,-43
12:39:27.580,,1026,36,-40
12:39:27.590,,1035,25,-35
12:39:27.600,,1031,10,-32
12:39:27.610,,1017,-4,-26
12:39:27.620,,1009,-9,-18
12:39:27.630,,1006,-13,-13
12:39:27.640,,1000,-17,-7
12:39:27.650,,999,-22,-3
12:39:27.660,,1003,-33,0
12:39:27.670,,1011,-52,-2
12:39:27.680,,1007,-62,-4
12:39:27.690,,992,-68,-7
12:39:27.700,,1000,-80,-13
12:39:27.710,,1004,-85,-20
12:39:27.720,,993,-86,-25
12:39:27.730,,989,-86,-24
12:39:27.740,,1014,-93,-25
12:39:27.750,,1008,-110,-35
12:39:27.760,,1002,-119,-42
12:39:27.770,,1001,-116,-47
12:39:27.780,,999,-105,-51
12:39:27.790,,998,-94,-57
12:39:27.800,,1005,-96,-66
12:39:27.810,,1014,-116,-73
12:39:27.820,,1017,-142,-82
12:39:27.830,,998,-159,-98
12:39:27.840,,987,-167,-108
12:39:27.850,,982,-159,-108
12:39:27.860,,992,-143,-111
12:39:27.870,,996,-130,-109
12:39:27.880,,997,-127,-109
12:39:27.890,,998,-122,-99
12:39:27.900,,1003,-120,-87
12:39:27.910,,1013,-127,-81
12:39:27.920,,1007,-140,-80
12:39:28.037,,985,-132,-25
12:39:28.038,,985,-132,-25
12:39:28.040,,985,-132,-25
12:39:28.041,,985,-132,-25
12:39:28.042,,985,-132,-25
12:39:28.044,,985,-132,-25
12:39:28.045,,985,-132,-25
12:39:28.046,,981,-150,-35
12:39:28.048,,981,-150,-35
12:39:28.049,,981,-150,-35
12:39:28.050,,981,-150,-35
12:39:28.052,,981,-150,-35
12:39:28.053,,981,-150,-35
12:39:28.060,,971,-155,-40
12:39:28.070,,970,-150,-37
12:39:28.080,,971,-126,-26
12:39:28.090,,971,-92,-27
12:39:28.100,,970,-59,-37
12:39:28.110,,973,-41,-44
12:39:28.120,,973,-25,-56
12:39:28.130,,990,17,-62
12:39:28.140,,996,24,-67
12:39:28.150,,1005,22,-70
12:39:28.160,,1015,24,-80
12:39:28.170,,1025,29,-98
12:39:28.180,,1036,35,-102
12:39:28.190,,1038,53,-93
12:39:28.200,,1041,77,-82
12:39:28.210,,1042,102,-75
12:39:28.220,,1044,120,-68
12:39:28.230,,1048,132,-60
12:39:28.240,,1048,140,-53
12:39:28.250,,1046,147,-54
12:39:28.260,,1052,150,-74
12:39:28.270,,1052,139,-99
12:39:28.280,,1036,137,-111
12:39:28.290,,1026,147,-111
12:39:28.300,,1024,155,-110
12:39:28.310,,1022,165,-109
12:39:28.320,,1026,170,-107
12:39:28.330,,1025,160,-109
12:39:28.340,,1015,135,-112
12:39:28.350,,1006,103,-111
12:39:28.360,,995,71,-109
12:39:28.370,,979,45,-104
12:39:28.380,,969,25,-91
12:39:28.390,,958,27,-76
12:39:28.400,,958,30,-69
12:39:28.410,,973,22,-65
12:39:28.420,,971,6,-67
12:39:28.430,,959,-13,-73
12:39:28.440,,956,-28,-83
12:39:28.450,,950,-38,-95
12:39:28.460,,946,-43,-97
12:39:28.470,,952,-41,-96
12:39:28.480,,964,-34,-94
12:39:28.490,,976,-38,-88
12:39:28.500,,969,-41,-82
12:39:28.510,,969,-38,-66
12:39:28.520,,979,-45,-71
12:39:28.530,,975,-60,-76
12:39:28.540,,974,-72,-76
12:39:28.550,,980,-74,-68
12:39:28.560,,987,-68,-57
12:39:28.570,,997,-63,-52
12:39:28.580,,996,-60,-49
12:39:28.590,,990,-62,-44
12:39:28.600,,989,-67,-49
12:39:28.610,,989,-73,-56
12:39:28.620,,991,-71,-61
12:39:28.630,,985,-66,-62
12:39:28.640,,995,-82,-82
12:39:28.650,,1000,-99,-95
12:39:28.660,,989,-111,-103
12:39:28.670,,990,-119,-102
12:39:28.680,,992,-127,-96
12:39:28.690,,989,-133,-93
12:39:28.700,,989,-144,-91
12:39:28.710,,997,-163,-92
12:39:28.720,,996,-182,-100
12:39:28.730,,987,-199,-100
12:39:28.740,,971,-214,-98
12:39:28.750,,960,-224,-96
12:39:28.760,,955,-223,-94
12:39:28.770,,960,-191,-102
12:39:28.780,,977,-181,-107
12:39:28.790,,987,-178,-119
12:39:28.800,,978,-182,-130
12:39:28.810,,973,-185,-134
12:39:28.820,,971,-183,-130
12:39:28.830,,962,-176,-126
12:39:28.840,,961,-173,-117
12:39:28.850,,964,-174,-105
12:39:28.860,,969,-177,-96
12:39:28.870,,972,-182,-90
12:39:28.880,,987,-197,-81
12:39:28.890,,982,-210,-69
12:39:28.900,,968,-207,-62
12:39:28.910,,965,-194,-59
12:39:28.920,,962,-177,-58
12:39:28.930,,971,-164,-56
12:39:28.940,,968,-142,-59
12:39:28.950,,967,-114,-65
12:39:28.960,,978,-89,-69
12:39:28.970,,984,-70,-81
12:39:28.980,,984,-52,-93
12:39:28.990,,984,-40,-99
12:39:29.000,,987,-21,-104
12:39:29.010,,999,-3,-110
12:39:29.020,,1014,25,-129
12:39:29.030,,1008,37,-136
12:39:29.040,,1019,52,-136
12:39:29.050,,1028,74,-138
12:39:29.060,,1036,95,-127
12:39:29.070,,1065,114,-113
12:39:29.080,,1078,135,-110
12:39:29.090,,1083,155,-109
12:39:29.100,,1085,174,-107
12:39:29.110,,1079,201,-106
12:39:29.120,,1067,230,-107
12:39:29.130,,1074,251,-117
12:39:29.140,,1078,273,-132
12:39:29.150,,1064,303,-161
12:39:29.160,,1057,303,-160
12:39:29.170,,1053,295,-159
12:39:29.180,,1052,284,-162
12:39:29.190,,1052,257,-162
12:39:29.200,,1033,219,-149
12:39:29.210,,1005,186,-138
12:39:29.220,,985,160,-128
12:39:29.230,,979,144,-126
12:39:29.240,,977,129,-122
12:39:29.250,,976,116,-118
12:39:29.260,,973,106,-115
12:39:29.270,,974,90,-116
12:39:29.280,,958,70,-118
12:39:29.290,,948,63,-112
12:39:29.300,,947,56,-103
12:39:29.310,,949,46,-100
12:39:29.320,,948,32,-95
12:39:29.330,,952,16,-92
12:39:29.340,,953,5,-94
12:39:29.350,,954,-2,-97
12:39:29.360,,947,-6,-100
12:39:29.370,,939,0,-104
12:39:29.380,,945,4,-105
12:39:29.390,,964,5,-109
12:39:29.400,,972,2,-115
12:39:29.410,,989,-26,-129
12:39:29.420,,1001,-51,-144
12:39:29.430,,1002,-73,-146
12:39:29.440,,1001,-85,-138
12:39:29.450,,994,-83,-128
12:39:29.572,,998,-149,-145
12:39:29.574,,998,-149,-145
12:39:29.575,,998,-149,-145
12:39:29.576,,998,-149,-150
12:39:29.578,,1000,-163,-150
12:39:29.579,,1000,-163,-150
12:39:29.580,,1000,-163,-150
12:39:29.582,,1000,-163,-150
12:39:29.583,,1000,-163,-150
12:39:29.584,,1000,-163,-150
12:39:29.586,,996,-177,-156
12:39:29.587,,996,-177,-156
12:39:29.589,,996,-177,-156
12:39:29.590,,996,-177,-156
12:39:29.600,,990,-186,-161
12:39:29.610,,992,-195,-164
12:39:29.620,,991,-203,-168
12:39:29.630,,987,-207,-172
12:39:29.640,,991,-212,-175
12:39:29.650,,996,-215,-174
12:39:29.660,,1001,-214,-165
12:39:29.670,,991,-197,-157
12:39:29.680,,991,-188,-154
12:39:29.690,,993,-184,-158
12:39:29.700,,987,-184,-159
12:39:29.710,,994,-190,-157
12:39:29.720,,987,-187,-157
12:39:29.730,,973,-181,-155
12:39:29.740,,977,-174,-152
12:39:29.750,,982,-162,-144
12:39:29.760,,980,-151,-133
12:39:29.770,,982,-148,-121
12:39:29.780,,980,-149,-115
12:39:29.790,,972,-147,-101
12:39:29.800,,976,-150,-95
12:39:29.810,,973,-157,-95
12:39:29.820,,969,-160,-95
12:39:29.830,,981,-167,-89
12:39:29.840,,989,-170,-81
12:39:29.850,,986,-167,-68
12:39:29.860,,977,-161,-59
12:39:29.870,,972,-151,-55
12:39:29.880,,968,-136,-54
12:39:29.890,,968,-124,-52
12:39:29.900,,975,-119,-51
12:39:29.910,,976,-119,-50
12:39:29.920,,984,-132,-54
12:39:29.930,,980,-130,-54
12:39:29.940,,981,-128,-51
12:39:29.950,,977,-125,-51
12:39:29.960,,972,-122,-56
12:39:29.970,,978,-120,-66
12:39:29.980,,983,-121,-74
12:39:29.990,,982,-117,-83
12:39:30.000,,977,-110,-90
12:39:30.010,,980,-102,-97
12:39:30.020,,982,-95,-108
12:39:30.030,,987,-87,-124
12:39:30.040,,988,-80,-137
12:39:30.050,,985,-58,-139
12:39:30.060,,988,-43,-154
12:39:30.070,,993,-43,-160
12:39:30.080,,1002,-53,-160
12:39:30.090,,1013,-68,-167
12:39:30.100,,1021,-80,-183
12:39:30.110,,1016,-85,-194
12:39:30.120,,1011,-78,-189
12:39:30.130,,1014,-64,-181
12:39:30.140,,1018,-40,-174
12:39:30.150,,1016,-19,-161
12:39:30.160,,1009,0,-149
12:39:30.170,,998,14,-140
12:39:30.180,,999,37,-141
12:39:30.190,,996,43,-142
12:39:30.200,,993,47,-146
12:39:30.210,,996,54,-149
12:39:30.220,,992,65,-147
12:39:30.230,,991,71,-145
12:39:30.240,,994,73,-142
12:39:30.250,,995,71,-143
12:39:30.260,,1001,61,-139
12:39:30.270,,998,55,-136
12:39:30.280,,990,46,-132
12:39:30.290,,984,41,-121
12:39:30.300,,978,42,-114
12:39:30.310,,969,60,-106
12:39:30.320,,978,72,-110
12:39:30.330,,990,79,-116
12:39:30.340,,989,72,-121
12:39:30.350,,986,59,-124
12:39:30.360,,992,47,-138
12:39:30.370,,991,32,-146
12:39:30.380,,995,20,-147
12:39:30.390,,1005,11,-148
12:39:30.400,,1016,0,-145
12:39:30.410,,1015,-11,-142
12:39:30.420,,1008,-17,-134
12:39:30.430,,1013,-20,-110
12:39:30.440,,1005,-23,-104
12:39:30.450,,1007,-25,-102
12:39:30.460,,1004,-19,-105
12:39:30.470,,1001,-9,-109
12:39:30.480,,1008,-4,-107
12:39:30.490,,1012,3,-107
12:39:30.500,,1010,4,-106
12:39:30.510,,1012,-3,-98
12:39:30.520,,1013,-15,-98
12:39:30.530,,999,-23,-94
12:39:30.540,,999,-23,-92
12:39:30.550,,1008,-17,-89
12:39:30.560,,1007,-5,-99
12:39:30.570,,999,-4,-107
12:39:30.580,,994,-3,-113
12:39:30.590,,985,8,-119
12:39:30.600,,986,23,-119
12:39:30.610,,991,35,-112
12:39:30.620,,996,35,-107
12:39:30.630,,999,20,-110
12:39:30.640,,998,-1,-119
12:39:30.650,,993,-24,-126
12:39:30.660,,984,-35,-132
12:39:30.670,,976,-36,-138
12:39:30.680,,983,-30,-140
12:39:30.690,,991,-5,-140
12:39:30.700,,998,-8,-142
12:39:30.710,,1001,-22,-149
12:39:30.720,,992,-40,-156
12:39:30.730,,994,-56,-156
12:39:30.740,,987,-62,-152
12:39:30.750,,981,-62,-146
12:39:30.760,,980,-57,-137
12:39:30.770,,986,-56,-136
12:39:30.780,,987,-55,-140
12:39:30.790,,982,-53,-145
12:39:30.800,,983,-51,-141
12:39:30.810,,981,-45,-138
12:39:30.820,,976,-37,-123
12:39:30.830,,977,-36,-116
12:39:30.840,,984,-38,-109
12:39:30.850,,986,-44,-104
12:39:30.860,,980,-49,-98
12:39:30.870,,976,-51,-95
12:39:30.880,,977,-46,-91
12:39:30.890,,979,-40,-89
12:39:30.900,,980,-36,-94
12:39:30.910,,988,-39,-101
12:39:30.920,,996,-45,-110
12:39:30.930,,993,-43,-115
12:39:30.940,,990,-33,-115
12:39:30.950,,983,-5,-102
12:39:30.960,,978,7,-102
12:39:31.077,,995,5,-114
12:39:31.078,,995,5,-114
12:39:31.080,,996,2,-117
12:39:31.081,,996,2,-117
12:39:31.082,,996,2,-117
12:39:31.084,,996,2,-117
12:39:31.085,,996,2,-117
12:39:31.086,,996,2,-117
12:39:31.088,,996,2,-117
12:39:31.089,,1000,-7,-125
12:39:31.090,,1000,-7,-125
12:39:31.092,,1000,-7,-125
12:39:31.093,,1000,-7,-125
12:39:31.100,,1009,-19,-133
12:39:31.110,,1009,-34,-149
12:39:31.120,,999,-39,-161
12:39:31.130,,989,-26,-170
12:39:31.140,,989,-3,-176
12:39:31.150,,994,16,-186
12:39:31.160,,1000,28,-201
12:39:31.170,,997,32,-210
12:39:31.180,,993,38,-210
12:39:31.190,,991,46,-197
12:39:31.200,,995,50,-164
12:39:31.210,,986,43,-153
12:39:31.220,,979,38,-142
12:39:31.230,,978,40,-133
12:39:31.240,,978,44,-128
12:39:31.250,,982,50,-133
12:39:31.260,,984,56,-135
12:39:31.270,,981,59,-127
12:39:31.280,,985,55,-130
12:39:31.290,,994,52,-138
12:39:31.300,,986,49,-124
12:39:31.310,,976,52,-101
12:39:31.320,,978,56,-84
12:39:31.330,,968,51,-75
12:39:31.340,,973,46,-74
12:39:31.350,,987,36,-80
12:39:31.360,,999,13,-101
12:39:31.370,,1002,-10,-130
12:39:31.380,,997,-22,-153
12:39:31.390,,1001,-16,-164
12:39:31.400,,999,3,-160
12:39:31.410,,992,31,-150
12:39:31.420,,987,51,-134
