Sensors' Acquisition [Hz]: Gyro@104.0 
hh:mm:ss.ms, Annotation , GyroX [mdps], GyroY, GyroZ
16:20:11.337,,5390,-1470,-1400
16:20:11.347,,4690,-1330,-1050
16:20:11.357,,3640,-1050,-700
16:20:11.367,,1260,-910,420
16:20:11.377,,0,-1120,980
16:20:11.387,,-840,-1330,1260
16:20:11.397,,-1470,-1820,1190
16:20:11.407,,-1820,-2660,1330
16:20:11.417,,-2100,-3220,1540
16:20:11.427,>Stationary,,,
16:20:11.428,,-2450,-3220,1750
16:20:11.437,,-2520,-2870,1820
16:20:11.447,,-2380,-2660,1750
16:20:11.457,,-1960,-2870,1750
16:20:11.467,,-1190,-3080,1820
16:20:11.477,,-210,-3290,1610
16:20:11.487,,840,-3430,770
16:20:11.497,,2590,-4970,560
16:20:11.507,,3220,-5740,490
16:20:11.517,,3080,-6230,140
16:20:11.527,,2450,-6440,-140
16:20:11.537,,1680,-6230,-350
16:20:11.547,,1120,-5950,-770
16:20:11.557,,1120,-5740,-1330
16:20:11.567,,1610,-5600,-2170
16:20:11.577,,2240,-5530,-3220
16:20:11.587,,3150,-5530,-3640
16:20:11.597,,4270,-5390,-3710
16:20:11.607,,4830,-4900,-3430
16:20:11.617,,4760,-3220,-2030
16:20:11.627,,3850,-2170,-1260
16:20:11.637,,3430,-910,-700
16:20:11.647,,2800,280,-210
16:20:11.657,,1960,1260,280
16:20:11.667,,1050,2100,700
16:20:11.677,,140,2660,1050
16:20:11.687,,-280,2940,1610
16:20:11.697,,-560,2940,2310
16:20:11.707,,-910,3010,3080
16:20:11.717,,-1120,2940,3710
16:20:11.727,,-1190,2870,3990
16:20:11.737,,-1330,3010,3850
16:20:11.747,,-2170,2940,3010
16:20:11.757,,-2240,2590,2730
16:20:11.767,,-1750,2100,2450
16:20:11.777,,-1050,1610,2450
16:20:11.787,,-350,1260,2660
16:20:11.797,,280,1190,2870
16:20:11.807,,840,1330,3010
16:20:11.817,,1120,1330,3010
16:20:11.827,,840,1400,2730
16:20:11.837,,560,1470,2310
16:20:11.847,,350,1470,1680
16:20:11.857,,280,1400,910
16:20:11.867,,630,1190,490
16:20:11.877,,1120,700,210
16:20:11.887,,980,350,350
16:20:11.897,,490,70,560
16:20:11.907,,-420,70,700
16:20:11.917,,-1400,70,770
16:20:11.927,,-2170,-70,700
16:20:11.937,,-2030,-490,630
16:20:11.947,,-980,-910,630
16:20:11.957,,420,-1400,560
16:20:11.967,,1960,-2100,420
16:20:11.977,,3570,-2730,350
16:20:11.987,,4900,-3290,350
16:20:11.997,,5600,-3780,280
16:20:12.007,,4690,-4410,70
16:20:12.017,,3780,-4410,140
16:20:12.027,,2520,-4200,420
16:20:12.037,,1470,-3850,560
16:20:12.047,,840,-3430,560
16:20:12.057,,840,-3010,560
16:20:12.067,,1260,-2800,560
16:20:12.077,,1610,-2870,490
16:20:12.087,,2030,-3150,630
16:20:12.097,,2310,-3500,980
16:20:12.107,,2380,-3640,1260
16:20:12.117,,2240,-3710,1400
16:20:12.127,,1960,-3640,770
16:20:12.137,,2100,-3850,-70
16:20:12.147,,2590,-3920,-770
16:20:12.157,,3080,-3500,-1680
16:20:12.167,,3850,-2940,-2450
16:20:12.177,,5180,-3010,-2940
16:20:12.187,,6300,-2800,-3500
16:20:12.197,,7210,-2240,-3920
16:20:12.207,,7840,-1960,-4130
16:20:12.217,,7840,-1890,-3850
16:20:12.227,,7210,-1890,-3430
16:20:12.237,,6370,-1750,-3080
16:20:12.247,,5460,-1680,-2800
16:20:12.257,,4690,-2030,-2310
16:20:12.267,,2730,-2660,-1890
16:20:12.277,,1400,-2170,-1190
16:20:12.287,,0,-1470,-210
16:20:12.297,,-1120,-420,1260
16:20:12.307,,-1890,770,2800
16:20:12.317,,-1960,1820,4130
16:20:12.327,,-1680,2450,5180
16:20:12.337,,-1400,2730,5880
16:20:12.347,,-1190,2660,6230
16:20:12.357,,-1470,2310,6230
16:20:12.367,,-1960,1680,5810
16:20:12.377,,-2030,910,4970
16:20:12.387,,-1960,-350,3500
16:20:12.397,,-1330,-980,2800
16:20:12.407,,-700,-1190,2100
16:20:12.417,,140,-1260,1610
16:20:12.427,,700,-1260,1190
16:20:12.437,,1050,-1190,840
16:20:12.447,,1260,-840,490
16:20:12.457,,1610,-630,210
16:20:12.467,,1680,-350,0
16:20:12.477,,1540,-210,0
16:20:12.487,,1540,140,70
16:20:12.497,,1820,350,70
16:20:12.507,,2240,420,-70
16:20:12.517,,2380,0,210
16:20:12.527,,1610,70,420
16:20:12.537,,1050,280,630
16:20:12.547,,910,140,1050
16:20:12.557,,700,-210,1470
16:20:12.567,,420,-350,1890
16:20:12.577,,350,0,2030
16:20:12.587,,560,210,2030
16:20:12.597,,770,70,1960
16:20:12.607,,1120,-140,1820
16:20:12.617,,1680,-210,1610
16:20:12.627,,2100,-280,1190
16:20:12.637,,2170,-560,910
16:20:12.647,,350,-1120,420
16:20:12.657,,-1050,-1050,140
16:20:12.667,,-2170,-910,-70
16:20:12.677,,-2870,-840,-140
16:20:12.687,,-3290,-910,-280
16:20:12.697,,-3360,-980,-420
16:20:12.826,,840,-420,420
16:20:12.827,,840,-420,420
16:20:12.828,,840,-420,420
16:20:12.830,,840,-420,420
16:20:12.831,,840,-420,420
16:20:12.832,,840,-420,980
16:20:12.834,,1260,-420,980
16:20:12.835,,1260,-420,980
16:20:12.837,,1260,-420,980
16:20:12.838,,1260,-420,980
16:20:12.839,,1260,-420,980
16:20:12.841,,1260,-420,980
16:20:12.842,,1330,-350,1260
16:20:12.843,,1330,-350,1260
16:20:12.847,,1330,-350,1260
16:20:12.857,,1330,-350,1470
16:20:12.867,,1050,-420,1470
16:20:12.877,,490,-420,1260
16:20:12.887,,70,-420,1120
16:20:12.897,,-70,-770,840
16:20:12.907,,-280,-1540,770
16:20:12.917,,-70,-1820,840
16:20:12.927,,350,-2030,770
16:20:12.937,,630,-2100,770
16:20:12.947,,840,-2030,700
16:20:12.957,,770,-1820,350
16:20:12.967,,560,-1470,-70
16:20:12.977,,700,-1190,-350
16:20:12.987,,910,-980,-560
16:20:12.997,,1260,-700,-560
16:20:13.007,,1820,-560,-560
16:20:13.017,,2310,-630,-700
16:20:13.027,,2730,-700,-700
16:20:13.037,,3220,-630,-770
16:20:13.047,,3080,-560,-1120
16:20:13.057,,2940,-560,-1330
16:20:13.067,,2730,-700,-1330
16:20:13.077,,2590,-910,-980
16:20:13.087,,2310,-980,-630
16:20:13.097,,2240,-700,-350
16:20:13.107,,2450,-560,-210
16:20:13.117,,3010,-560,-70
16:20:13.127,,3640,-770,70
16:20:13.137,,3920,-980,350
16:20:13.147,,3640,-840,770
16:20:13.157,,1890,140,1330
16:20:13.167,,1540,350,1190
16:20:13.177,,1890,210,910
16:20:13.187,,2450,-70,630
16:20:13.197,,3360,-560,490
16:20:13.207,,4200,-1120,700
16:20:13.217,,4410,-1470,1050
16:20:13.227,,3780,-1400,1330
16:20:13.237,,2870,-980,1470
16:20:13.247,,2170,-490,1330
16:20:13.257,,1820,-140,1190
16:20:13.267,,1680,140,1050
16:20:13.277,,1750,350,980
16:20:13.287,,2240,210,1050
16:20:13.297,,2310,210,1050
16:20:13.307,,2170,210,980
16:20:13.317,,1890,210,980
16:20:13.327,,1540,280,910
16:20:13.337,,980,350,910
16:20:13.347,,350,420,980
16:20:13.357,,-350,490,840
16:20:13.367,,-630,490,840
16:20:13.377,,-420,490,980
16:20:13.387,,-280,560,1260
16:20:13.397,,280,770,1400
16:20:13.407,,1190,630,1540
16:20:13.417,,3080,210,1540
16:20:13.427,,2870,350,1050
16:20:13.437,,2730,280,630
16:20:13.447,,3010,70,420
16:20:13.457,,3150,-140,280
16:20:13.467,,3290,-280,140
16:20:13.477,,3430,-560,-70
16:20:13.487,,3500,-770,-210
16:20:13.497,,3570,-770,-140
16:20:13.507,,3640,-420,140
16:20:13.517,,3500,-70,490
16:20:13.527,,3570,0,490
16:20:13.537,,4410,-70,280
16:20:13.547,,5320,1050,280
16:20:13.557,,3780,2310,630
16:20:13.567,,1820,3010,980
16:20:13.577,,560,3500,1120
16:20:13.587,,-560,3500,1190
16:20:13.597,,-1260,2730,1400
16:20:13.607,,-1120,1750,1680
16:20:13.617,,-280,910,1680
16:20:13.627,,700,210,1260
16:20:13.637,,1540,-630,700
16:20:13.647,,2100,-1330,560
16:20:13.657,,1960,-1890,630
16:20:13.667,,1610,-2100,490
16:20:13.677,,1190,-1820,490
16:20:13.687,,1050,-1680,280
16:20:13.697,,980,-1680,70
16:20:13.707,,1120,-1470,70
16:20:13.717,,1400,-1120,350
16:20:13.727,,1540,-700,700
16:20:13.737,,1610,-560,980
16:20:13.747,,1820,-560,1190
16:20:13.757,,1680,-280,1400
16:20:13.767,,1050,0,1610
16:20:13.777,,280,140,1540
16:20:13.787,,-210,0,1540
16:20:13.797,,-420,-840,1400
16:20:13.807,,-910,-1190,1400
16:20:13.817,,-1540,-1470,1190
16:20:13.827,,-1890,-1750,840
16:20:13.837,,-1540,-1960,560
16:20:13.847,,-910,-2310,350
16:20:13.857,,-70,-2660,0
16:20:13.867,,840,-3010,-280
16:20:13.877,,1750,-3080,-350
16:20:13.887,,2450,-3010,-280
16:20:13.897,,2870,-2730,-280
16:20:13.907,,3010,-2310,-350
16:20:13.917,,2870,-2100,-350
16:20:13.927,,3010,-2170,-140
16:20:13.937,,2660,-2100,0
16:20:13.947,,2170,-1750,0
16:20:13.957,,1750,-1330,0
16:20:13.967,,1470,-980,0
16:20:13.977,,1050,-350,210
16:20:13.987,,350,210,630
16:20:13.997,,-280,350,1050
16:20:14.007,,-350,70,1260
16:20:14.017,,140,-420,1190
16:20:14.027,,630,-840,980
16:20:14.037,,1190,-1260,700
16:20:14.047,,1750,-1750,420
16:20:14.057,,2730,-2310,350
16:20:14.067,,2380,-2170,350
16:20:14.077,,1890,-1820,350
16:20:14.087,,1470,-1610,280
16:20:14.097,,1190,-1610,70
16:20:14.107,,1050,-1680,210
16:20:14.117,,910,-1540,630
16:20:14.127,,980,-980,840
16:20:14.137,,1610,-770,840
16:20:14.147,,2800,-1260,630
16:20:14.157,,3920,-1890,210
16:20:14.280,,-210,-1190,560
16:20:14.282,,-210,-1190,560
16:20:14.283,,-210,-1190,560
16:20:14.285,,-210,-1190,560
16:20:14.286,,-210,-1190,560
16:20:14.287,,-210,-1190,560
16:20:14.289,,-210,-2590,280
16:20:14.290,,1400,-2590,280
16:20:14.291,,1400,-2590,280
16:20:14.293,,1400,-2590,280
16:20:14.294,,1400,-2590,280
16:20:14.295,,1400,-2590,280
16:20:14.297,,1400,-2590,280
16:20:14.298,,2450,-3990,-140
16:20:14.307,,2450,-3990,-490
16:20:14.317,,2800,-5600,-770
16:20:14.327,,2240,-5670,-770
16:20:14.337,,1680,-5110,-560
16:20:14.347,,980,-4270,-210
16:20:14.357,,420,-3290,280
16:20:14.367,,0,-2240,910
16:20:14.377,,-140,-1330,1610
16:20:14.387,,-70,-560,2170
16:20:14.397,,140,-140,2520
16:20:14.407,,350,0,2800
16:20:14.417,,280,280,3010
16:20:14.427,,0,490,3080
16:20:14.437,,-350,1540,2730
16:20:14.447,,-2730,2870,2520
16:20:14.457,,-4270,4270,2380
16:20:14.467,,-5110,5460,2170
16:20:14.477,,-5110,6160,1960
16:20:14.487,,-4340,6090,1890
16:20:14.497,,-3360,5530,1750
16:20:14.507,,-2380,4900,1680
16:20:14.517,,-1540,4480,1540
16:20:14.527,,-770,4130,1190
16:20:14.537,,70,3360,490
16:20:14.547,,1050,1960,-280
16:20:14.557,,1960,420,-840
16:20:14.567,,2520,-1890,-1120
16:20:14.577,,1750,-2170,-1050
16:20:14.587,,1330,-1960,-910
16:20:14.597,,1330,-1750,-910
16:20:14.607,,1610,-1260,-770
16:20:14.617,,2030,-420,-490
16:20:14.627,,2100,490,140
16:20:14.637,,1960,1330,700
16:20:14.647,,1610,1890,910
16:20:14.657,,1330,2100,840
16:20:14.667,,1330,1680,770
16:20:14.677,,1610,980,630
16:20:14.687,,1820,210,420
16:20:14.697,,1820,-1190,210
16:20:14.707,,1610,-1610,210
16:20:14.717,,1260,-1890,210
16:20:14.727,,1120,-1960,140
16:20:14.737,,1120,-1890,210
16:20:14.747,,1120,-1750,350
16:20:14.757,,1330,-1540,490
16:20:14.767,,1750,-1400,770
16:20:14.777,,2170,-1400,1120
16:20:14.787,,2450,-1400,1260
16:20:14.797,,2730,-1540,1190
16:20:14.807,,2520,-1680,1050
16:20:14.817,,1890,-1960,630
16:20:14.827,,1050,-2380,-70
16:20:14.837,,840,-2660,-210
16:20:14.847,,910,-3010,-280
16:20:14.857,,1120,-3290,-140
16:20:14.867,,1330,-3430,-140
16:20:14.877,,1470,-3500,-140
16:20:14.887,,1540,-3430,-140
16:20:14.897,,1470,-3360,-140
16:20:14.907,,1540,-3150,-70
16:20:14.917,,1680,-3010,-210
16:20:14.927,,1680,-2730,-210
16:20:14.937,,1890,-2520,-70
16:20:14.947,,2170,-2730,0
16:20:14.957,,2170,-2870,-140
16:20:14.967,,1680,-2520,-210
16:20:14.977,,1050,-2170,-70
16:20:14.987,,560,-1890,70
16:20:14.997,,490,-1680,140
16:20:15.007,,700,-1540,70
16:20:15.017,,770,-1330,0
16:20:15.027,,630,-1050,-70
16:20:15.037,,630,-770,-140
16:20:15.047,,910,-700,-280
16:20:15.057,,1470,-980,-420
16:20:15.067,,2100,-1470,-420
16:20:15.077,,2590,-1750,-140
16:20:15.087,,2800,-2030,-70
16:20:15.097,,2870,-1960,-70
16:20:15.107,,2380,-1680,-70
16:20:15.117,,1750,-1330,70
16:20:15.127,,1120,-910,280
16:20:15.137,,630,-420,490
16:20:15.147,,350,-70,630
16:20:15.157,,350,140,700
16:20:15.167,,560,0,770
16:20:15.177,,910,-210,910
16:20:15.187,,1050,-350,1190
16:20:15.197,,980,-280,1400
16:20:15.207,,700,420,1190
16:20:15.217,,770,420,770
16:20:15.227,,1400,140,350
16:20:15.237,,2030,-280,70
16:20:15.247,,2240,-700,0
16:20:15.257,,2100,-770,-70
16:20:15.267,,1960,-840,-140
16:20:15.277,,1680,-770,-280
16:20:15.287,,1330,-630,-280
16:20:15.297,,1400,-630,-210
16:20:15.307,,1750,-560,-140
16:20:15.317,,2100,-420,0
16:20:15.327,,2310,-420,70
16:20:15.337,,2520,-560,280
16:20:15.347,,2590,-770,420
16:20:15.357,,2380,-1050,560
16:20:15.367,,2030,-1120,630
16:20:15.377,,1680,-1120,700
16:20:15.387,,1260,-1050,770
16:20:15.397,,910,-1120,910
16:20:15.407,,560,-1190,1050
16:20:15.417,,280,-1260,1260
16:20:15.427,,350,-1260,1470
16:20:15.437,,630,-1330,1680
16:20:15.447,,1050,-1260,1820
16:20:15.457,,1470,-1190,1820
16:20:15.467,,1750,-630,1610
16:20:15.477,,1820,-420,1400
16:20:15.487,,1750,-560,1330
16:20:15.497,,1540,-700,1120
16:20:15.507,,1050,-910,840
16:20:15.517,,700,-1120,560
16:20:15.527,,560,-1330,420
16:20:15.537,,560,-1260,210
16:20:15.547,,700,-1120,140
16:20:15.557,,1050,-980,70
16:20:15.567,,1680,-980,210
16:20:15.577,,2240,-1050,350
16:20:15.587,,2520,-1050,630
16:20:15.712,,2240,-210,770
16:20:15.713,,2240,-210,770
16:20:15.714,,2240,-210,770
16:20:15.716,,2240,-210,770
16:20:15.717,,2240,-280,700
16:20:15.718,,2240,-280,700
16:20:15.720,,2240,-280,700
16:20:15.721,,2240,-280,700
16:20:15.723,,2240,-280,700
16:20:15.724,,2240,-280,700
16:20:15.725,,2240,-280,700
16:20:15.727,,1960,-350,770
16:20:15.728,,1960,-350,770
16:20:15.729,,1960,-350,770
16:20:15.737,,1680,-350,840
16:20:15.747,,1540,-420,840
16:20:15.757,,1540,-420,840
16:20:15.767,,1680,-350,840
16:20:15.777,,1680,-210,910
16:20:15.787,,1820,-210,1050
16:20:15.797,,1820,-280,1050
16:20:15.807,,1470,-210,1050
16:20:15.817,,1050,0,980
16:20:15.827,,630,0,910
16:20:15.837,,700,-210,840
16:20:15.847,,1120,-1050,910
16:20:15.857,,1470,-1260,980
16:20:15.867,,1330,-1120,980
16:20:15.877,,1400,-840,770
16:20:15.887,,1820,-770,420
16:20:15.897,,2520,-980,70
16:20:15.907,,3220,-1260,-210
16:20:15.917,,3500,-1470,-350
16:20:15.927,,3220,-1400,-490
16:20:15.937,,2730,-1330,-490
16:20:15.947,,1820,-1190,-350
16:20:15.957,,840,-1050,-350
16:20:15.967,,420,-910,-350
16:20:15.977,,630,-1190,-280
16:20:15.987,,2030,-1470,-210
16:20:15.997,,2660,-1610,-70
16:20:16.007,,3150,-1680,0
16:20:16.017,,3150,-1750,140
16:20:16.027,,2520,-1680,210
16:20:16.037,,1610,-1330,350
16:20:16.047,,630,-980,490
16:20:16.057,,0,-770,490
16:20:16.067,,-210,-910,560
16:20:16.077,,-280,-1190,630
16:20:16.087,,-420,-1540,700
16:20:16.097,,-840,-2170,210
16:20:16.107,,-5530,-4620,-4690
16:20:16.117,,-8050,-6650,-7630
16:20:16.127,,-10080,-7280,-9170
16:20:16.137,,-12040,-6230,-9170
16:20:16.147,,-13650,-4480,-7770
16:20:16.157,,-14140,-2660,-5670
16:20:16.167,,-12950,-420,-4130
16:20:16.177,,-10640,1540,-2870
16:20:16.187,,-7140,2100,-1960
16:20:16.197,,-3780,1470,-630
16:20:16.207,,-1120,910,140
16:20:16.217,,700,490,490
16:20:16.227,,2240,-350,490
16:20:16.237,,4340,-1960,770
16:20:16.247,,4900,-2170,1120
16:20:16.257,,5530,-2380,1330
16:20:16.267,,6020,-2590,1470
16:20:16.277,,6230,-2520,1470
16:20:16.287,,6230,-2170,1470
16:20:16.297,,6160,-1680,1400
16:20:16.307,,6090,-1050,1260
16:20:16.317,,6440,-630,1190
16:20:16.327,,7210,-420,1050
16:20:16.337,,8260,-350,1120
16:20:16.347,,9170,-350,1190
16:20:16.357,,9870,-420,1330
16:20:16.367,,9660,-840,1400
16:20:16.377,,8610,-770,1260
16:20:16.387,,7350,-630,1190
16:20:16.397,,6300,-490,1260
16:20:16.407,,5390,-560,1260
16:20:16.417,,4690,-630,1330
16:20:16.427,,4200,-630,1260
16:20:16.437,,3500,-560,1330
16:20:16.447,,2870,-350,1750
16:20:16.457,,2380,-70,2100
16:20:16.467,,2030,350,2030
16:20:16.477,,2170,490,1960
16:20:16.487,,2940,140,1820
16:20:16.497,,4130,0,1820
16:20:16.507,,3850,280,2030
16:20:16.517,,3290,630,2380
16:20:16.527,,2660,910,2450
16:20:16.537,,1960,1400,2030
16:20:16.547,,1120,1960,1400
16:20:16.557,,350,2240,980
16:20:16.567,,70,2170,980
16:20:16.577,,350,1890,1050
16:20:16.587,,840,1470,980
16:20:16.597,,1400,910,840
16:20:16.607,,1890,490,770
16:20:16.617,,2170,-350,700
16:20:16.627,,2590,-420,490
16:20:16.637,,2380,-70,350
16:20:16.647,,2100,420,560
16:20:16.657,,1960,700,840
16:20:16.667,,1890,840,910
16:20:16.677,,1960,700,700
16:20:16.687,,1890,560,560
16:20:16.697,,1890,140,350
16:20:16.707,,2170,-350,0
16:20:16.717,,2800,-910,-350
16:20:16.727,,3360,-1610,-630
16:20:16.737,,3570,-2030,-770
16:20:16.747,,3430,-2660,-770
16:20:16.757,,3430,-2800,-770
16:20:16.767,,3640,-2870,-840
16:20:16.777,,4060,-3010,-910
16:20:16.787,,4480,-3290,-1260
16:20:16.797,,5110,-3570,-1610
16:20:16.807,,5460,-3570,-1820
16:20:16.817,,4830,-3360,-1820
16:20:16.827,,3640,-2730,-1540
16:20:16.837,,2660,-2170,-1260
16:20:16.847,,2310,-1890,-1120
16:20:16.857,,2590,-1890,-1190
16:20:16.867,,3290,-1960,-1330
16:20:16.877,,4620,-2100,-1050
16:20:16.887,,4830,-2100,-980
16:20:16.897,,4550,-2030,-840
16:20:16.907,,4270,-1820,-700
16:20:16.917,,4130,-1680,-420
16:20:16.927,,3990,-1680,-70
16:20:16.937,,3430,-1470,280
16:20:16.947,,2450,-1190,630
16:20:16.957,,1260,-770,980
16:20:16.967,,490,-700,1190
16:20:16.977,,210,-910,1330
16:20:16.987,,0,-980,1470
16:20:16.997,,-280,-840,1540
16:20:17.007,,0,-1190,1400
16:20:17.131,,350,-2100,700
16:20:17.132,,350,-2100,700
16:20:17.134,,350,-2100,700
16:20:17.135,,350,-2100,700
16:20:17.137,,350,-2590,700
16:20:17.138,,350,-2590,700
16:20:17.139,,350,-2590,700
16:20:17.141,,350,-2590,700
16:20:17.142,,350,-2590,700
16:20:17.143,,350,-2590,700
16:20:17.145,,350,-2590,700
16:20:17.146,,490,-2800,910
16:20:17.148,,490,-2800,910
16:20:17.149,,490,-2800,910
16:20:17.157,,350,-2660,1120
16:20:17.167,,-210,-2240,1120
16:20:17.177,,-700,-1680,980
16:20:17.187,,-910,-1190,910
16:20:17.197,,-980,-1050,700
16:20:17.207,,-1400,-1190,210
16:20:17.217,,-1750,-1540,-140
16:20:17.227,,-1820,-1750,-420
16:20:17.237,,-2030,-1820,-560
16:20:17.247,,-2170,-1750,-770
16:20:17.257,,-2030,-1680,-1050
16:20:17.267,,-840,-1960,-1050
16:20:17.277,,-630,-1890,-1050
16:20:17.287,,-700,-1680,-980
16:20:17.297,,-560,-1330,-910
16:20:17.307,,-770,-840,-1050
16:20:17.317,,-700,-770,-1330
16:20:17.327,,-560,-840,-1400
16:20:17.337,,-490,-910,-1260
16:20:17.347,,-560,-1120,-1120
16:20:17.357,,-560,-1400,-1050
16:20:17.367,,-560,-1610,-840
16:20:17.377,,-770,-1540,-770
16:20:17.387,,-910,-630,-770
16:20:17.397,,-280,-630,-840
16:20:17.407,,490,-840,-910
16:20:17.417,,1120,-840,-1120
16:20:17.427,,1400,-700,-1120
16:20:17.437,,1260,-700,-910
16:20:17.447,,910,-560,-770
16:20:17.457,,350,-140,-770
16:20:17.467,,-560,420,-840
16:20:17.477,,-1260,840,-840
16:20:17.487,,-980,700,-840
16:20:17.497,,-350,280,-770
16:20:17.507,,0,-210,-840
16:20:17.517,,1050,-1190,-700
16:20:17.527,,1470,-1540,-560
16:20:17.537,,1050,-1540,-560
16:20:17.547,,490,-1120,-490
16:20:17.557,,-70,-700,-350
16:20:17.567,,-700,-210,-70
16:20:17.577,,-980,140,350
16:20:17.587,,-980,420,700
16:20:17.597,,-980,420,910
16:20:17.607,,-630,420,1050
16:20:17.617,,-280,280,1190
16:20:17.627,,-490,70,1120
16:20:17.637,,-910,-140,910
16:20:17.647,,-770,-350,980
16:20:17.657,,-1050,70,1190
16:20:17.667,,-1470,770,1750
16:20:17.677,,-1610,1260,2310
16:20:17.687,,-1330,1330,2660
16:20:17.697,,-770,1050,2590
16:20:17.707,,-350,490,2310
16:20:17.717,,-140,-280,1960
16:20:17.727,,-70,-980,1610
16:20:17.737,,70,-1400,1400
16:20:17.747,,-70,-1400,1260
16:20:17.757,,-420,-1190,1050
16:20:17.767,,-560,-1050,910
16:20:17.777,,-350,-1400,980
16:20:17.787,,-1120,-1540,1330
16:20:17.797,,-3220,-1050,1750
16:20:17.807,,-4760,-210,1610
16:20:17.817,,-4830,280,980
16:20:17.827,,-4480,70,140
16:20:17.837,,-3150,-630,-350
16:20:17.847,,-1680,-1260,-980
16:20:17.857,,-700,-1890,-1330
16:20:17.867,,-140,-2450,-1400
16:20:17.877,,140,-2520,-1400
16:20:17.887,,490,-2520,-1470
16:20:17.897,,1120,-2660,-1190
16:20:17.907,,2590,-2170,-980
16:20:17.917,,2870,-1470,-910
16:20:17.927,,3290,-1190,-770
16:20:17.937,,3500,-980,-560
16:20:17.947,,3080,-700,-350
16:20:17.957,,2310,-420,-210
16:20:17.967,,1470,-280,-280
16:20:17.977,,840,-490,-350
16:20:17.987,,630,-840,-420
16:20:17.997,,630,-1260,-420
16:20:18.007,,910,-1610,-350
16:20:18.017,,1470,-1890,-350
16:20:18.027,,2170,-1960,-420
16:20:18.037,,2940,-1680,-560
16:20:18.047,,2870,-1190,-630
16:20:18.057,,2660,-840,-630
16:20:18.067,,2520,-490,-420
16:20:18.077,,2450,-350,-210
16:20:18.087,,2310,-280,0
16:20:18.097,,1890,-280,0
16:20:18.107,,1120,-280,-70
16:20:18.117,,700,-560,-140
16:20:18.127,,420,-910,-140
16:20:18.137,,350,-1190,-140
16:20:18.147,,420,-1610,-70
16:20:18.157,,1820,-2170,210
16:20:18.167,,2450,-2100,210
16:20:18.177,,2730,-1960,280
16:20:18.187,,2520,-1540,420
16:20:18.197,,1610,-1050,700
16:20:18.207,,140,-630,1120
16:20:18.217,,-1330,-70,1680
16:20:18.227,,-2730,280,2100
16:20:18.237,,-3990,490,2380
16:20:18.247,,-5320,560,2730
16:20:18.257,,-5460,490,2800
16:20:18.267,,-4060,420,2380
16:20:18.277,,-2380,0,2170
16:20:18.287,,910,-1960,1960
16:20:18.297,,2730,-2520,1750
16:20:18.307,,4340,-2870,1470
16:20:18.317,,5390,-3010,1400
16:20:18.327,,6020,-2940,1330
16:20:18.337,,6230,-2590,1330
16:20:18.347,,5950,-2170,1540
16:20:18.357,,5250,-1540,1680
16:20:18.367,,4060,-980,1680
16:20:18.377,,2940,-560,1750
16:20:18.387,,2030,-420,1610
16:20:18.397,,1400,-630,1470
16:20:18.407,,1190,-980,1470
16:20:18.417,,840,-1470,1680
16:20:18.547,,3500,490,-980
16:20:18.548,,3500,490,-980
16:20:18.550,,3500,490,-980
16:20:18.551,,3500,490,-980
16:20:18.552,,3500,490,-980
16:20:18.554,,3500,490,-980
16:20:18.555,,3500,490,-980
16:20:18.556,,3220,770,-700
16:20:18.558,,3220,770,-700
16:20:18.559,,3220,770,-700
16:20:18.560,,3220,770,-700
16:20:18.562,,3220,770,-700
16:20:18.563,,3220,770,-700
16:20:18.565,,3220,770,-560
16:20:18.567,,3290,980,-560
16:20:18.577,,3430,840,-420
16:20:18.587,,3360,490,-280
16:20:18.597,,3080,420,-70
16:20:18.607,,2800,420,280
16:20:18.617,,2660,350,560
16:20:18.627,,2450,140,980
16:20:18.637,,2170,140,1400
16:20:18.647,,1890,280,1750
16:20:18.657,,1400,350,1960
16:20:18.667,,1120,140,2030
16:20:18.677,,1400,-280,1820
16:20:18.687,,1190,-280,1540
16:20:18.697,,1260,-280,1330
16:20:18.707,,1540,-420,1260
16:20:18.717,,1680,-420,1120
16:20:18.727,,1820,-210,910
16:20:18.737,,1960,-140,560
16:20:18.747,,1890,-210,280
16:20:18.757,,1610,-490,0
16:20:18.767,,1400,-910,-350
16:20:18.777,,1120,-1330,-700
16:20:18.787,,980,-1890,-1120
16:20:18.797,,770,-2520,-1540
16:20:18.807,,490,-2520,-1400
16:20:18.817,,490,-2590,-1190
16:20:18.827,,350,-2520,-1120
16:20:18.837,,-70,-2240,-980
16:20:18.847,,-490,-1960,-700
16:20:18.857,,-560,-1890,-210
16:20:18.867,,-350,-1610,350
16:20:18.877,,420,-1470,840
16:20:18.887,,1400,-1540,1190
16:20:18.897,,2100,-1470,1470
16:20:18.907,,2240,-1120,1610
16:20:18.917,,1750,-910,1540
16:20:18.927,,1190,-1190,1260
16:20:18.937,,980,-1050,1260
16:20:18.947,,770,-1120,1190
16:20:18.957,,630,-1190,1050
16:20:18.967,,910,-1470,980
16:20:18.977,,1120,-1750,910
16:20:18.987,,1190,-1890,840
16:20:18.997,,1120,-1960,770
16:20:19.007,,1190,-2030,980
16:20:19.017,,1120,-2100,1260
16:20:19.027,,980,-1890,1820
16:20:19.037,,700,-1610,2450
16:20:19.047,,210,-1400,3080
16:20:19.057,,-770,-1470,3360
16:20:19.067,,-490,-2030,2940
16:20:19.077,,280,-3220,2170
16:20:19.087,,1330,-4550,1330
16:20:19.097,,2590,-5670,700
16:20:19.107,,3780,-6720,140
16:20:19.117,,4550,-7350,-420
16:20:19.127,,4900,-7490,-910
16:20:19.137,,4760,-7000,-1260
16:20:19.147,,4410,-6160,-1470
16:20:19.157,,3850,-4830,-1610
16:20:19.167,,3430,-3430,-1680
16:20:19.177,,2940,-2170,-1750
16:20:19.187,,1470,-140,-1750
16:20:19.197,,1120,350,-1750
16:20:19.207,,910,210,-1750
16:20:19.217,,770,-140,-1540
16:20:19.227,,770,-350,-1050
16:20:19.237,,630,-560,-490
16:20:19.247,,420,-630,0
16:20:19.257,,350,-700,560
16:20:19.267,,210,-770,1050
16:20:19.277,,210,-1120,1400
16:20:19.287,,630,-1540,1610
16:20:19.297,,1260,-2030,1680
16:20:19.307,,1750,-2450,1330
16:20:19.317,,2380,-2450,840
16:20:19.327,,2940,-2450,280
16:20:19.337,,3430,-2310,-210
16:20:19.347,,3500,-2030,-700
16:20:19.357,,3360,-1750,-980
16:20:19.367,,2870,-1470,-1260
16:20:19.377,,2380,-1050,-1470
16:20:19.387,,2030,-700,-1540
16:20:19.397,,1750,-490,-1680
16:20:19.407,,1540,-560,-1890
16:20:19.417,,1330,-1050,-2310
16:20:19.427,,1400,-1890,-2800
16:20:19.437,,1680,-3500,-3080
16:20:19.447,,2450,-3710,-2660
16:20:19.457,,2590,-3570,-2030
16:20:19.467,,2590,-3220,-1260
16:20:19.477,,2520,-2660,-630
16:20:19.487,,2310,-1960,-70
16:20:19.497,,2100,-1050,280
16:20:19.507,,1820,-630,420
16:20:19.517,,1750,-490,490
16:20:19.527,,1610,-490,630
16:20:19.537,,1470,-490,770
16:20:19.547,,1400,-700,700
16:20:19.557,,1540,-1260,490
16:20:19.567,,1260,-2450,-980
16:20:19.577,,-140,-3290,-1890
16:20:19.586,,-210,-4410,-2660
16:20:19.597,,210,-5740,-3080
16:20:19.607,,560,-7000,-3360
16:20:19.616,,1190,-6930,-3640
16:20:19.627,,1680,-6160,-2870
16:20:19.637,,1680,-5530,-1890
16:20:19.646,,1750,-4970,-1190
16:20:19.657,,2310,-4340,-770
16:20:19.667,,3150,-3710,-140
16:20:19.676,,3360,-2940,490
16:20:19.687,,2870,-1960,910
16:20:19.697,,1960,-140,1190
16:20:19.706,,2170,420,1050
16:20:19.717,,2520,420,560
16:20:19.726,,3010,140,-70
16:20:19.736,,3570,140,-560
16:20:19.747,,3710,490,-770
16:20:19.756,,3430,1120,-840
16:20:19.766,,3150,1680,-840
16:20:19.777,,3080,2170,-700
16:20:19.786,,3290,2520,-420
16:20:19.796,,3640,2520,0
16:20:19.807,,4480,2170,280
16:20:19.816,,5250,1610,630
16:20:19.826,,5600,420,1330
16:20:19.952,,1610,-840,1890
16:20:19.953,,1610,-840,1890
16:20:19.955,,1610,-840,1890
16:20:19.956,,2590,-1470,1260
16:20:19.957,,2590,-1470,1260
16:20:19.959,,2590,-1470,1260
16:20:19.960,,2590,-1470,1260
16:20:19.962,,2590,-1470,1260
16:20:19.963,,2590,-1470,1260
16:20:19.964,,2590,-1470,1260
16:20:19.966,,3500,-2310,630
16:20:19.967,,3500,-2310,630
16:20:19.968,,3500,-2310,630
16:20:19.970,,3500,-2310,630
16:20:19.976,,4130,-3080,0
16:20:19.986,,4620,-3710,-420
16:20:19.996,,4760,-4060,-630
16:20:20.006,,4340,-3990,-560
16:20:20.016,,3500,-3360,-420
16:20:20.026,,2450,-2450,-280
16:20:20.036,,1470,-1470,-70
16:20:20.046,,910,-630,140
16:20:20.056,,700,-140,210
16:20:20.066,,560,70,280
16:20:20.076,,700,140,420
16:20:20.086,,1470,-140,630
16:20:20.096,,1470,-210,700
16:20:20.106,,1050,-140,770
16:20:20.116,,630,-70,770
16:20:20.126,,280,-140,770
16:20:20.136,,350,-350,840
16:20:20.146,,700,-490,910
16:20:20.156,,1260,-560,910
16:20:20.166,,1960,-630,910
16:20:20.176,,2380,-490,910
16:20:20.186,,2240,-140,910
16:20:20.196,,1890,210,910
16:20:20.206,,1540,0,840
16:20:20.216,,1470,-280,840
16:20:20.226,,1610,-490,840
16:20:20.236,,1610,-700,840
16:20:20.246,,1610,-770,840
16:20:20.256,,1470,-630,700
16:20:20.266,,1330,-420,700
16:20:20.276,,1400,-560,770
16:20:20.286,,1260,-700,840
16:20:20.296,,1400,-840,910
16:20:20.306,,1610,-1050,1190
16:20:20.316,,1680,-1260,1610
16:20:20.326,,1400,-1120,1960
16:20:20.336,,140,-210,1890
16:20:20.346,,140,-140,1610
16:20:20.356,,490,-350,1330
16:20:20.366,,1050,-700,1050
16:20:20.376,,1610,-1050,770
16:20:20.386,,1960,-1330,490
16:20:20.396,,2030,-1400,350
16:20:20.406,,1750,-1260,140
16:20:20.416,,1540,-1050,70
16:20:20.426,,1330,-700,70
16:20:20.436,,1400,-280,280
16:20:20.446,,1610,-140,350
16:20:20.456,,2030,-140,560
16:20:20.466,,2380,-420,700
16:20:20.476,,2240,-700,770
16:20:20.486,,2030,-840,770
16:20:20.496,,1820,-910,700
16:20:20.506,,1960,-1120,700
16:20:20.516,,2240,-1400,630
16:20:20.526,,2590,-1610,770
16:20:20.536,,2520,-1540,910
16:20:20.546,,2030,-1190,980
16:20:20.556,,1540,-770,980
16:20:20.566,,1330,-490,840
16:20:20.576,,1470,-420,700
16:20:20.586,,1960,-350,630
16:20:20.596,,3080,-350,560
16:20:20.606,,3220,-420,490
16:20:20.616,,3080,-420,420
16:20:20.626,,2590,-420,420
16:20:20.636,,2030,-420,490
16:20:20.646,,1610,-350,560
16:20:20.656,,1610,-350,560
16:20:20.666,,1960,-490,420
16:20:20.676,,2520,-770,350
16:20:20.686,,3220,-1120,210
16:20:20.696,,3850,-1470,-70
16:20:20.706,,4410,-1890,-420
16:20:20.716,,4620,-2170,-1190
16:20:20.726,,4410,-2590,-1470
16:20:20.736,,4480,-2590,-1750
16:20:20.746,,4690,-2660,-2170
16:20:20.756,,5390,-2870,-2520
16:20:20.766,,6440,-3570,-2940
16:20:20.776,,7560,-4550,-3360
16:20:20.786,,8540,-5530,-3640
16:20:20.796,,9660,-6790,-3920
16:20:20.806,,10920,-8260,-4270
16:20:20.816,,12390,-9940,-4900
16:20:20.826,,13580,-11340,-5390
16:20:20.836,,14420,-12180,-6020
16:20:20.846,,15260,-13300,-7490
16:20:20.856,,17570,-14070,-8260
16:20:20.866,,18410,-14490,-8960
16:20:20.876,,18620,-14420,-9450
16:20:20.886,,18690,-13930,-9660
16:20:20.896,,18410,-13090,-9940
16:20:20.906,,18270,-11900,-10220
16:20:20.916,,18830,-10990,-10500
16:20:20.926,,19810,-10570,-10850
16:20:20.936,,20790,-10360,-11060
16:20:20.946,,21630,-10430,-11130
16:20:20.956,,21910,-10500,-11060
16:20:20.966,,21420,-10500,-10920
16:20:20.976,,20580,-9730,-10710
16:20:20.986,,19320,-9450,-10570
16:20:20.996,,19670,-9240,-10290
16:20:21.006,,20650,-9380,-10080
16:20:21.016,,21980,-9730,-10080
16:20:21.026,,23310,-9940,-10290
16:20:21.036,,24430,-9870,-10570
16:20:21.046,,25410,-9660,-10920
16:20:21.056,,26530,-9520,-11200
16:20:21.066,,28070,-9520,-11410
16:20:21.076,,29680,-9450,-11620
16:20:21.086,,31150,-9030,-11620
16:20:21.096,,32200,-8680,-11410
16:20:21.106,,32620,-8050,-11620
16:20:21.116,,32200,-7630,-11760
16:20:21.126,,31850,-7490,-11970
16:20:21.136,,31850,-7980,-12320
16:20:21.146,,32690,-8820,-12600
16:20:21.156,,34090,-9660,-12460
16:20:21.166,,35070,-10150,-11970
16:20:21.176,,35280,-10010,-11270
16:20:21.186,,35140,-9100,-10430
16:20:21.313,,19950,8050,-140
16:20:21.314,,19950,8050,-140
16:20:21.316,,19950,8050,-140
16:20:21.317,,19950,8050,-140
16:20:21.318,,19950,8050,-140
16:20:21.320,,17640,9030,630
16:20:21.321,,17640,9030,630
16:20:21.322,,17640,9030,630
16:20:21.324,,17640,9030,630
16:20:21.325,,17640,9030,630
16:20:21.327,,17640,9030,630
16:20:21.328,,17640,9030,630
16:20:21.329,,16030,9730,1610
16:20:21.331,,16030,9730,1610
16:20:21.336,,16030,9730,1610
16:20:21.346,,14980,10220,2240
16:20:21.356,,14280,10500,2520
16:20:21.366,,13370,10430,3850
16:20:21.376,,13370,9660,3920
16:20:21.386,,13020,8890,4410
16:20:21.396,,11760,8120,4480
16:20:21.406,,10710,7910,4410
16:20:21.416,,11480,6930,4340
16:20:21.426,,12320,5530,4480
16:20:21.436,,12810,5110,4690
16:20:21.446,,13860,4690,4480
16:20:21.456,,14980,4130,4270
16:20:21.466,,15680,3780,4060
16:20:21.476,,15890,3850,3990
16:20:21.486,,15190,3920,3640
16:20:21.496,,13160,3290,3570
16:20:21.506,,12180,2940,3710
16:20:21.516,,11690,2380,3920
16:20:21.526,,11900,1540,3920
16:20:21.536,,12390,420,3780
16:20:21.546,,12670,-350,3710
16:20:21.556,,12530,-560,3500
16:20:21.566,,12250,-560,3430
16:20:21.576,,12040,-560,3430
16:20:21.586,,11830,-490,3570
16:20:21.596,,11620,-350,3430
16:20:21.606,,11480,-420,3220
16:20:21.616,,11550,-700,3990
16:20:21.626,,11690,-630,4340
16:20:21.636,,11130,-420,4200
16:20:21.646,,10710,-420,3780
16:20:21.656,,10710,-420,3150
16:20:21.666,,11340,-630,2520
16:20:21.676,,12110,-770,1890
16:20:21.686,,12600,-910,1470
16:20:21.696,,12740,-770,1190
16:20:21.706,,12670,-560,910
16:20:21.716,,12390,-210,420
16:20:21.726,,12040,280,-350
16:20:21.736,,11900,630,-1260
16:20:21.746,,13440,630,-2520
16:20:21.756,,14210,630,-2870
16:20:21.766,,14560,840,-2940
16:20:21.776,,14420,1120,-2660
16:20:21.786,,13580,1400,-2310
16:20:21.796,,12460,1890,-2100
16:20:21.806,,11480,2520,-2380
16:20:21.816,,10990,3080,-2940
16:20:21.826,,11130,3500,-3430
16:20:21.836,,11410,3920,-3500
16:20:21.846,,11200,4410,-3290
16:20:21.856,,10220,5320,-2870
16:20:21.866,,8190,6510,-2240
16:20:21.876,,3290,9660,-840
16:20:21.886,,2240,10850,-770
16:20:21.896,,2450,11480,-910
16:20:21.906,,3850,11620,-1120
16:20:21.916,,5670,11340,-1400
16:20:21.926,,7420,10850,-1540
16:20:21.936,,8750,10010,-1680
16:20:21.946,,9380,8960,-1680
16:20:21.956,,9170,8190,-1750
16:20:21.966,,8540,7700,-1890
16:20:21.976,,8190,7280,-1960
16:20:21.986,,8330,6790,-1890
16:20:21.996,,9240,6510,-1960
16:20:22.006,,11690,6510,-2170
16:20:22.016,,12810,6440,-2100
16:20:22.026,,13230,6090,-1890
16:20:22.036,,12390,6300,-1680
16:20:22.046,,10360,7000,-1610
16:20:22.056,,7910,7770,-1820
16:20:22.066,,6160,7980,-2240
16:20:22.076,,5460,7630,-2800
16:20:22.086,,6370,6720,-3500
16:20:22.096,,7980,5530,-4130
16:20:22.106,,9520,4690,-4690
16:20:22.116,,11200,3990,-5040
16:20:22.126,,12880,3290,-5950
16:20:22.136,,16240,2030,-6160
16:20:22.146,,17500,1400,-5880
16:20:22.156,,18060,1050,-5460
16:20:22.166,,17990,910,-5040
16:20:22.176,,17780,910,-4550
16:20:22.186,,17360,910,-3850
16:20:22.196,,16800,980,-3290
16:20:22.206,,16380,1120,-2800
16:20:22.216,,16100,1400,-2450
16:20:22.226,,15960,1610,-2100
16:20:22.236,,16170,1820,-1890
16:20:22.246,,16590,1400,-1960
16:20:22.256,,17290,840,-1540
16:20:22.266,,18340,210,-1120
16:20:22.276,,18760,-70,-840
16:20:22.286,,19460,-280,-700
16:20:22.296,,20440,-490,-840
16:20:22.306,,21490,-630,-840
16:20:22.316,,22540,-700,-630
16:20:22.326,,23380,-560,-560
16:20:22.336,,24290,-420,-980
16:20:22.346,,25200,-210,-1470
16:20:22.356,,25830,-70,-1610
16:20:22.366,,26320,-70,-1400
16:20:22.376,,26810,-210,-1190
16:20:22.386,,26880,-210,-840
16:20:22.396,,26040,-140,-770
16:20:22.406,,25410,-210,-840
16:20:22.416,,25060,-350,-910
16:20:22.426,,25340,-770,-1050
16:20:22.436,,25900,-1330,-1050
16:20:22.446,,26390,-1750,-1050
16:20:22.456,,27020,-2240,-1050
16:20:22.466,,27720,-2660,-1050
16:20:22.476,,28350,-2870,-1050
16:20:22.486,,28980,-3010,-1050
16:20:22.496,,29540,-3290,-980
16:20:22.506,,30100,-3710,-770
16:20:22.516,,30030,-4620,140
16:20:22.526,,28910,-4830,630
16:20:22.536,,27370,-4900,1050
16:20:22.546,,25130,-4760,1470
16:20:22.672,,29400,-7350,-210
16:20:22.673,,29400,-7350,-210
16:20:22.675,,29540,-8050,-140
16:20:22.676,,29540,-8050,-140
16:20:22.677,,29540,-8050,-140
16:20:22.679,,29540,-8050,-140
16:20:22.680,,29540,-8050,-140
16:20:22.681,,29540,-8050,-140
16:20:22.683,,29540,-8050,-350
16:20:22.684,,29610,-8680,-350
16:20:22.686,,29610,-8680,-350
16:20:22.687,,29610,-8680,-350
16:20:22.688,,29610,-8680,-350
16:20:22.690,,29610,-8680,-350
16:20:22.696,,29750,-8960,-560
16:20:22.706,,30100,-9030,-770
16:20:22.716,,30240,-9240,-910
16:20:22.726,,30240,-9450,-840
16:20:22.736,,30170,-9520,-770
16:20:22.746,,30030,-9590,-980
16:20:22.756,,29960,-9730,-1260
16:20:22.766,,30240,-9800,-1470
16:20:22.776,,31500,-9870,-1750
16:20:22.786,,32270,-10080,-1680
16:20:22.796,,33040,-10570,-1470
16:20:22.806,,33460,-10990,-1190
16:20:22.816,,33600,-11270,-980
16:20:22.826,,33670,-11480,-980
16:20:22.836,,34020,-11830,-1330
16:20:22.846,,35000,-12530,-1820
16:20:22.856,,36470,-13440,-2450
16:20:22.866,,38290,-14280,-3150
16:20:22.876,,40250,-15050,-3640
16:20:22.886,,41580,-15750,-3920
16:20:22.896,,42630,-16030,-4410
16:20:22.906,,43260,-15820,-4130
16:20:22.916,,42840,-15610,-3710
16:20:22.926,,42140,-15190,-3290
16:20:22.936,,41720,-14910,-2940
16:20:22.946,,41930,-15050,-2590
16:20:22.956,,42840,-15610,-2240
16:20:22.966,,44310,-16590,-1750
16:20:22.976,,45850,-17570,-1330
16:20:22.986,,47040,-18270,-840
16:20:22.996,,47740,-18760,-280
16:20:23.006,,47740,-18690,210
16:20:23.016,,47180,-17990,490
16:20:23.026,,46830,-16660,210
16:20:23.036,,48300,-17080,-210
16:20:23.046,,49280,-17920,-280
16:20:23.056,,49420,-18480,-490
16:20:23.066,,49000,-19110,-840
16:20:23.076,,47950,-19670,-560
16:20:23.086,,46200,-19950,70
16:20:23.096,,44310,-19740,840
16:20:23.106,,43190,-19250,1540
16:20:23.116,,42980,-18760,1960
16:20:23.126,,43610,-18340,2380
16:20:23.136,,45080,-18130,2520
16:20:23.146,,46900,-17920,2590
16:20:23.156,,49350,-17430,2590
16:20:23.166,,49280,-17150,2520
16:20:23.176,,48090,-16450,2100
16:20:23.186,,46550,-15680,1400
16:20:23.196,,45290,-15260,560
16:20:23.206,,44660,-15400,-280
16:20:23.216,,44310,-15610,-1050
16:20:23.226,,43820,-15540,-1610
16:20:23.236,,43400,-15260,-2030
16:20:23.246,,42980,-15050,-2590
16:20:23.256,,42910,-14980,-3360
16:20:23.266,,43540,-15470,-4690
16:20:23.276,,45150,-16590,-6230
16:20:23.286,,49140,-19320,-9030
16:20:23.296,,50050,-20370,-10220
16:20:23.306,,49840,-20720,-11690
16:20:23.316,,49000,-20370,-13020
16:20:23.326,,48160,-19530,-14210
16:20:23.336,,47600,-18060,-15260
16:20:23.346,,47530,-16520,-15890
16:20:23.356,,48160,-15260,-16380
16:20:23.366,,49280,-14630,-16520
16:20:23.376,,50190,-14070,-16310
16:20:23.386,,50050,-13300,-15680
16:20:23.396,,48580,-12250,-14910
16:20:23.406,,46130,-10920,-14210
16:20:23.416,,40250,-7770,-12670
16:20:23.426,,37590,-6020,-11900
16:20:23.436,,35210,-4550,-11060
16:20:23.446,,33530,-3640,-10150
16:20:23.456,,32340,-3080,-8960
16:20:23.466,,31500,-2660,-7700
16:20:23.476,,30660,-2730,-6160
16:20:23.486,,29540,-3080,-4270
16:20:23.496,,27790,-3360,-2100
16:20:23.506,,25060,-3080,210
16:20:23.516,,21770,-2310,2730
16:20:23.526,,18690,-1540,5600
16:20:23.536,,16100,-1190,8330
16:20:23.546,,14070,-2660,12390
16:20:23.556,,13930,-3990,13860
16:20:23.566,,13580,-5110,14910
16:20:23.576,,12880,-6020,15400
16:20:23.586,,11900,-6790,15750
16:20:23.596,,10710,-7280,15820
16:20:23.606,,9520,-7000,15750
16:20:23.616,,8190,-6230,15750
16:20:23.626,,7070,-4970,15680
16:20:23.636,,6580,-3500,15120
16:20:23.646,,6650,-2100,14140
16:20:23.656,,6790,-770,13090
16:20:23.666,,6510,420,10990
16:20:23.676,,4620,2800,10010
16:20:23.686,,3430,3500,9170
16:20:23.696,,1540,4130,8890
16:20:23.706,,-1050,5390,9100
16:20:23.716,,-4200,7210,9730
16:20:23.726,,-7420,9170,10360
16:20:23.736,,-10080,10850,10710
16:20:23.746,,-11690,11970,10990
16:20:23.756,,-12740,12600,11340
16:20:23.766,,-13440,12950,11760
16:20:23.776,,-13720,12950,11900
16:20:23.786,,-14210,12810,11970
16:20:23.796,,-14770,13230,11830
16:20:23.806,,-17290,14140,11900
16:20:23.816,,-18970,15190,12180
16:20:23.826,,-20510,14630,12040
16:20:23.956,,-44730,31710,12040
16:20:23.957,,-44730,31710,12040
16:20:23.959,,-44730,31710,12040
16:20:23.960,,-44730,31710,12040
16:20:23.961,,-44730,31710,12040
16:20:23.963,,-44730,31710,11130
16:20:23.964,,-46620,31080,11130
16:20:23.966,,-46620,31080,11130
16:20:23.967,,-46620,31080,11130
16:20:23.968,,-46620,31080,11130
16:20:23.970,,-46620,31080,11130
16:20:23.971,,-46620,31080,11130
16:20:23.972,,-48090,30730,10290
16:20:23.974,,-48090,30730,10290
16:20:23.976,,-48090,30730,10290
16:20:23.986,,-50050,31570,9800
16:20:23.996,,-52780,32620,9240
16:20:24.006,,-55370,32830,8260
16:20:24.016,,-57400,32340,7210
16:20:24.026,,-58520,31080,5670
16:20:24.036,,-58520,28980,3920
16:20:24.046,,-57260,26600,2240
16:20:24.056,,-54390,24220,-140
16:20:24.066,,-53130,24500,-1120
16:20:24.076,,-52010,25410,-1610
16:20:24.086,,-51240,26810,-2030
16:20:24.096,,-51170,28490,-2730
16:20:24.106,,-51870,30030,-3360
16:20:24.116,,-53060,31150,-4200
16:20:24.126,,-54040,31710,-4760
16:20:24.136,,-54460,30520,-5180
16:20:24.146,,-54460,26740,-5110
16:20:24.156,,-56070,21350,-4550
16:20:24.166,,-61040,16100,-3430
16:20:24.176,,-68740,13090,-350
16:20:24.186,,-92260,16730,5880
16:20:24.196,,-103950,22960,7490
16:20:24.206,,-110040,29050,8330
16:20:24.216,,-109340,32760,8680
16:20:24.226,,-104510,35070,8680
16:20:24.236,,-96530,35980,8610
16:20:24.246,,-85610,34720,8190
16:20:24.256,,-72800,30660,7840
16:20:24.266,,-61530,24710,7630
16:20:24.276,,-55580,19670,7070
16:20:24.286,,-54460,16520,6440
16:20:24.296,,-55580,14630,5950
16:20:24.306,,-56840,12810,5880
16:20:24.316,,-55650,9520,6160
16:20:24.326,,-52920,8470,6930
16:20:24.336,,-48860,7560,7910
16:20:24.346,,-44100,6860,9170
16:20:24.356,,-39270,5600,10220
16:20:24.366,,-35280,4200,11200
16:20:24.376,,-33110,3500,12390
16:20:24.386,,-32620,3500,14070
16:20:24.396,,-33530,3640,16030
16:20:24.406,,-35980,4200,17710
16:20:24.416,,-39340,5390,18690
16:20:24.426,,-43050,7140,18970
16:20:24.436,,-46200,9380,18480
16:20:24.446,,-48580,9590,17780
16:20:24.456,,-47320,8680,17010
16:20:24.466,,-45150,7420,16380
16:20:24.476,,-42770,6580,16030
16:20:24.486,,-41160,6510,15540
16:20:24.496,,-41580,7490,14840
16:20:24.506,,-42980,9170,13510
16:20:24.516,,-44100,10780,11410
16:20:24.526,,-43610,11830,9030
16:20:24.536,,-41720,12390,6650
16:20:24.546,,-38850,12530,4340
16:20:24.556,,-35280,12460,2170
16:20:24.566,,-31570,11620,-1260
16:20:24.576,,-25340,11200,-2450
16:20:24.586,,-23520,10640,-3640
16:20:24.596,,-22750,10150,-4270
16:20:24.606,,-22260,9590,-4760
16:20:24.616,,-22750,9100,-5040
16:20:24.626,,-23940,8890,-4830
16:20:24.636,,-25760,8750,-4690
16:20:24.646,,-28280,8890,-4130
16:20:24.656,,-31500,9380,-3430
16:20:24.666,,-33810,9520,-2940
16:20:24.676,,-35560,9170,-2380
16:20:24.686,,-36680,8330,-1610
16:20:24.696,,-37940,6300,280
16:20:24.706,,-39620,6370,980
16:20:24.716,,-41440,6860,1680
16:20:24.726,,-42910,7420,2380
16:20:24.736,,-44030,7700,2870
16:20:24.746,,-44660,7630,3150
16:20:24.756,,-44590,6860,2800
16:20:24.766,,-43820,5670,2520
16:20:24.776,,-42700,4480,2240
16:20:24.786,,-41440,3640,2030
16:20:24.796,,-39410,2660,1680
16:20:24.806,,-37590,1610,1190
16:20:24.816,,-36820,1330,1190
16:20:24.826,,-35630,1610,700
16:20:24.836,,-34020,1330,70
16:20:24.846,,-31640,700,-630
16:20:24.856,,-28980,0,-910
16:20:24.866,,-26460,-1330,-1050
16:20:24.876,,-25410,-2870,-1260
16:20:24.886,,-26250,-3570,-1050
16:20:24.896,,-27370,-3640,-560
16:20:24.906,,-27790,-3500,-210
16:20:24.916,,-28000,-3430,-280
16:20:24.926,,-27580,-3290,-560
16:20:24.936,,-26390,-3080,-770
16:20:24.946,,-24150,-3150,-700
16:20:24.956,,-18060,-4480,-210
16:20:24.966,,-15050,-4900,70
16:20:24.976,,-12250,-5320,-70
16:20:24.986,,-9870,-5740,-420
16:20:24.996,,-7910,-6020,-1120
16:20:25.006,,-6160,-6370,-2030
16:20:25.016,,-4480,-6650,-2870
16:20:25.026,,-3080,-6650,-3430
16:20:25.036,,-1610,-6580,-4060
16:20:25.046,,280,-6930,-4830
16:20:25.056,,1820,-6930,-5040
16:20:25.066,,3220,-6720,-5320
16:20:25.076,,5740,-7630,-4620
16:20:25.086,,9240,-13790,-4060
16:20:25.096,,6650,-14910,-3220
16:20:25.106,,1400,-13440,-1960
16:20:25.231,,-26530,-490,5600
16:20:25.233,,-26530,-490,5600
16:20:25.234,,-29330,1540,5810
16:20:25.235,,-29330,1540,5810
16:20:25.237,,-29330,1540,5810
16:20:25.238,,-29330,1540,5810
16:20:25.239,,-29330,1540,5810
16:20:25.241,,-29330,1540,5810
16:20:25.242,,-29330,1540,5810
16:20:25.244,,-29540,3010,5810
16:20:25.245,,-29540,3010,5810
16:20:25.246,,-29540,3010,5810
16:20:25.248,,-29540,3010,5810
16:20:25.249,,-29540,3010,5810
16:20:25.256,,-28560,3850,4900
16:20:25.266,,-27510,4480,3430
16:20:25.276,,-24780,4200,2380
16:20:25.286,,-21280,2730,1820
16:20:25.296,,-18900,1470,1680
16:20:25.306,,-16940,910,1540
16:20:25.316,,-14280,350,1190
16:20:25.326,,-11480,-210,350
16:20:25.336,,-8540,770,-1400
16:20:25.346,,-7770,1470,-1680
16:20:25.356,,-7280,1960,-1680
16:20:25.366,,-7210,2450,-1470
16:20:25.376,,-7420,3080,-1190
16:20:25.386,,-7980,3570,-910
16:20:25.396,,-8960,3990,-840
16:20:25.406,,-10360,4690,-840
16:20:25.416,,-11830,5460,-910
16:20:25.426,,-13160,6160,-1050
16:20:25.436,,-14140,6510,-1190
16:20:25.446,,-14770,6510,-1610
16:20:25.456,,-15050,6230,-1960
16:20:25.466,,-14280,4830,-2590
16:20:25.476,,-13790,3850,-3010
16:20:25.486,,-13440,3080,-3430
16:20:25.496,,-13300,2310,-3710
16:20:25.506,,-13090,1750,-4270
16:20:25.516,,-13020,1120,-4830
16:20:25.526,,-13230,700,-5250
16:20:25.536,,-14000,630,-5600
16:20:25.546,,-15400,980,-6020
16:20:25.556,,-16730,1680,-6440
16:20:25.566,,-17430,2240,-6650
16:20:25.576,,-17500,2310,-7140
16:20:25.586,,-16870,1890,-7840
16:20:25.596,,-15470,910,-8680
16:20:25.606,,-14910,420,-8820
16:20:25.616,,-14490,210,-8960
16:20:25.626,,-14070,0,-9100
16:20:25.636,,-13440,-70,-9170
16:20:25.646,,-12740,-140,-9170
16:20:25.656,,-11830,-210,-8820
16:20:25.666,,-10990,-210,-8470
16:20:25.676,,-10290,-70,-8050
16:20:25.686,,-9730,210,-7560
16:20:25.696,,-9380,210,-6930
16:20:25.706,,-9030,-70,-6160
16:20:25.716,,-8680,-350,-4060
16:20:25.726,,-8890,210,-2870
16:20:25.736,,-9520,1120,-1820
16:20:25.746,,-9940,2100,-1050
16:20:25.756,,-9730,2590,-630
16:20:25.766,,-8890,2520,-280
16:20:25.776,,-7910,2240,-140
16:20:25.786,,-7000,1820,0
16:20:25.796,,-6650,1540,140
16:20:25.806,,-6860,1540,350
16:20:25.816,,-7490,1820,350
16:20:25.826,,-8190,2100,350
16:20:25.836,,-8750,2450,420
16:20:25.846,,-9240,3010,700
16:20:25.856,,-9730,4340,840
16:20:25.866,,-9310,4550,980
16:20:25.876,,-8400,4340,1050
16:20:25.886,,-7560,3850,1190
16:20:25.896,,-6860,3010,1610
16:20:25.906,,-6580,2030,1960
16:20:25.916,,-6930,1330,2240
16:20:25.926,,-7560,1050,2800
16:20:25.936,,-8260,1050,3500
16:20:25.946,,-8960,1120,4270
16:20:25.956,,-9310,840,5110
16:20:25.966,,-9310,490,5810
16:20:25.976,,-8960,-210,6860
16:20:25.986,,-7560,-770,7210
16:20:25.996,,-6720,-1540,7560
16:20:26.006,,-5950,-2380,7910
16:20:26.016,,-5810,-3080,8190
16:20:26.026,,-6300,-3290,8260
16:20:26.036,,-7210,-3080,8190
16:20:26.046,,-7560,-2870,7980
16:20:26.056,,-7140,-2870,7560
16:20:26.066,,-6020,-3010,7000
16:20:26.076,,-4410,-3290,6370
16:20:26.086,,-2730,-3570,5880
16:20:26.096,,-1190,-3850,5460
16:20:26.106,,700,-3920,5040
16:20:26.116,,980,-3850,4760
16:20:26.126,,1050,-3850,4550
16:20:26.136,,840,-3850,4200
16:20:26.146,,350,-3640,3920
16:20:26.156,,0,-3430,3850
16:20:26.166,,-280,-3360,3780
16:20:26.176,,-140,-3430,3780
16:20:26.186,,560,-3710,3780
16:20:26.196,,1470,-4130,3780
16:20:26.206,,2450,-4550,3780
16:20:26.216,,3220,-4900,3850
16:20:26.226,,3780,-5040,3780
16:20:26.236,,3990,-4830,3570
16:20:26.246,,4270,-4690,3500
16:20:26.256,,4550,-4690,3360
16:20:26.266,,5180,-4690,3150
16:20:26.276,,5740,-4620,2940
16:20:26.286,,6160,-4620,2730
16:20:26.296,,6440,-4550,2660
16:20:26.306,,6160,-4270,2660
16:20:26.316,,5600,-3780,2590
16:20:26.326,,4690,-3010,2520
16:20:26.336,,3640,-2240,2380
16:20:26.346,,3010,-1610,2240
16:20:26.356,,3150,-1470,1960
16:20:26.366,,3920,-1470,1120
16:20:26.376,,4130,-1400,700
16:20:26.386,,4200,-1330,350
16:20:26.396,,4200,-1330,140
16:20:26.406,,3920,-1400,140
16:20:26.416,,3570,-1400,280
16:20:26.426,,3360,-1470,350
16:20:26.436,,3360,-1820,280
16:20:26.446,,3640,-2170,210
16:20:26.572,,4410,-4480,1400
16:20:26.573,,4410,-4480,1400
16:20:26.574,,4410,-4480,1400
16:20:26.576,,4410,-4480,1400
16:20:26.577,,4410,-4480,1400
16:20:26.578,,4410,-4480,1400
16:20:26.580,,4690,-4690,1540
16:20:26.581,,4690,-4690,1540
16:20:26.583,,4690,-4690,1540
16:20:26.584,,4690,-4690,1540
16:20:26.585,,4690,-4690,1540
16:20:26.587,,4690,-4690,1540
16:20:26.588,,4690,-4830,1680
16:20:26.589,,4900,-4830,1680
16:20:26.596,,4900,-4830,1680
16:20:26.606,,5320,-4970,1540
16:20:26.616,,5880,-5530,910
16:20:26.626,,6790,-6090,700
16:20:26.636,,6580,-6370,630
16:20:26.646,,5950,-6160,560
16:20:26.656,,5110,-5670,350
16:20:26.666,,4410,-5180,280
16:20:26.676,,3990,-4690,210
16:20:26.686,,3850,-4130,0
16:20:26.696,,4130,-3920,-210
16:20:26.706,,4830,-3990,-490
16:20:26.716,,5600,-4410,-910
16:20:26.726,,6300,-4830,-1330
16:20:26.736,,6930,-5390,-1680
16:20:26.746,,7280,-6090,-2030
16:20:26.756,,6860,-6020,-2030
16:20:26.766,,6090,-5600,-1680
16:20:26.776,,5040,-5040,-1260
16:20:26.786,,3920,-4340,-910
16:20:26.796,,3150,-3780,-700
16:20:26.806,,2870,-3570,-490
16:20:26.816,,3010,-3710,-490
16:20:26.826,,3430,-4060,-420
16:20:26.836,,3780,-4410,-490
16:20:26.846,,3850,-4760,-560
16:20:26.856,,3640,-4900,-490
16:20:26.866,,3150,-4900,-210
16:20:26.876,,1330,-4480,490
16:20:26.886,,350,-4060,910
16:20:26.896,,-420,-3500,1120
16:20:26.906,,-1050,-2940,1260
16:20:26.916,,-1190,-2730,1330
16:20:26.926,,-1050,-2730,1190
16:20:26.936,,-770,-3010,980
16:20:26.946,,-700,-3500,770
16:20:26.956,,-770,-3990,490
16:20:26.966,,-1050,-4410,350
16:20:26.976,,-1190,-4760,280
16:20:26.986,,-1540,-4970,140
16:20:26.996,,-2030,-4970,-70
16:20:27.006,,-2100,-4830,-490
16:20:27.016,,-1960,-4760,-560
16:20:27.026,,-2100,-4480,-560
16:20:27.036,,-2380,-4200,-490
16:20:27.046,,-2800,-4060,-420
16:20:27.056,,-3150,-4060,-350
16:20:27.066,,-3360,-4270,-210
16:20:27.076,,-3360,-4760,-280
16:20:27.086,,-3360,-5320,-210
16:20:27.096,,-3570,-5740,0
16:20:27.106,,-3920,-5880,70
16:20:27.116,,-4340,-5740,-140
16:20:27.126,,-4690,-5530,-700
16:20:27.136,,-4970,-5460,-980
16:20:27.146,,-5040,-5600,-1260
16:20:27.156,,-5250,-5740,-1260
16:20:27.166,,-5460,-5880,-1190
16:20:27.176,,-5530,-6090,-1190
16:20:27.186,,-5390,-6300,-1190
16:20:27.196,,-5040,-6370,-1190
16:20:27.206,,-4760,-6370,-1190
16:20:27.216,,-4550,-6440,-1050
16:20:27.226,,-4550,-6510,-1050
16:20:27.236,,-4690,-6580,-1120
16:20:27.246,,-4690,-6720,-1120
16:20:27.256,,-4480,-7070,-840
16:20:27.266,,-3080,-8400,-770
16:20:27.276,,-2450,-8820,-630
16:20:27.286,,-2240,-9030,-560
16:20:27.296,,-2100,-9100,-630
16:20:27.306,,-1680,-9520,-630
16:20:27.316,,-1050,-10150,-420
16:20:27.326,,-840,-10570,0
16:20:27.336,,-1540,-10360,490
16:20:27.346,,-3710,-9170,840
16:20:27.356,,-7560,-6720,840
16:20:27.366,,-11480,-3570,560
16:20:27.376,,-14280,-770,70
16:20:27.386,,-15540,1470,-1120
16:20:27.396,,-15680,1540,-1470
16:20:27.406,,-14840,770,-1610
16:20:27.416,,-13930,-350,-1470
16:20:27.426,,-13020,-1680,-1190
16:20:27.436,,-13160,-3010,-770
16:20:27.446,,-14910,-3290,-420
16:20:27.456,,-16660,-2240,70
16:20:27.466,,-16800,-910,700
16:20:27.476,,-15820,280,1330
16:20:27.486,,-14630,1960,1960
16:20:27.496,,-13580,4200,2520
16:20:27.506,,-12390,6300,3010
16:20:27.516,,-9800,7840,3080
16:20:27.526,,-8890,8120,2800
16:20:27.536,,-8330,8260,2450
16:20:27.546,,-8540,7980,2240
16:20:27.556,,-9380,7770,2170
16:20:27.566,,-11130,7840,2380
16:20:27.576,,-13720,8190,2730
16:20:27.586,,-16940,8820,3290
16:20:27.596,,-20230,9590,3850
16:20:27.606,,-23100,10430,4270
16:20:27.616,,-25620,11200,4340
16:20:27.626,,-27790,12040,4130
16:20:27.636,,-29400,12880,3780
16:20:27.646,,-30310,14000,2450
16:20:27.656,,-29610,14070,1610
16:20:27.666,,-29050,14070,1050
16:20:27.676,,-28980,14210,630
16:20:27.686,,-29330,14420,280
16:20:27.696,,-29960,14490,-420
16:20:27.706,,-30870,14560,-980
16:20:27.716,,-31780,14840,-1330
16:20:27.726,,-32620,14980,-1540
16:20:27.736,,-32970,14910,-1680
16:20:27.746,,-33040,14630,-1820
16:20:27.756,,-32830,14490,-1960
16:20:27.766,,-32340,14350,-1890
16:20:27.776,,-31920,14840,-1400
16:20:27.786,,-32480,15680,-770
16:20:27.911,,-48930,25480,4410
16:20:27.912,,-48930,25480,4410
16:20:27.914,,-48930,25480,4410
16:20:27.915,,-51380,26740,4130
16:20:27.916,,-51380,26740,4130
16:20:27.918,,-51380,26740,4130
16:20:27.919,,-51380,26740,4130
16:20:27.921,,-51380,26740,4130
16:20:27.922,,-51380,26740,4130
16:20:27.923,,-51380,26740,4130
16:20:27.925,,-53270,27300,3780
16:20:27.926,,-53270,27300,3780
16:20:27.927,,-53270,27300,3780
16:20:27.929,,-53270,27300,3780
16:20:27.936,,-54390,27090,3640
16:20:27.946,,-54880,25340,3500
16:20:27.956,,-55020,22050,3430
16:20:27.966,,-55650,17920,3430
16:20:27.976,,-57330,13930,3990
16:20:27.986,,-59990,11060,4900
16:20:27.996,,-62720,9170,5880
16:20:28.006,,-65380,8820,6930
16:20:28.016,,-67550,10500,7910
16:20:28.026,,-68180,15890,8960
16:20:28.036,,-60270,17640,8120
16:20:28.046,,-52920,18760,6720
16:20:28.056,,-45360,19670,5880
16:20:28.066,,-39130,20230,5250
16:20:28.076,,-35560,20860,4900
16:20:28.086,,-35000,21630,4690
16:20:28.096,,-35840,22680,4760
16:20:28.106,,-36890,23590,4830
16:20:28.116,,-38080,24220,4970
16:20:28.126,,-40110,24500,5250
16:20:28.136,,-43260,24430,5180
16:20:28.146,,-46830,23940,5110
16:20:28.156,,-49840,21070,6440
16:20:28.166,,-53550,19740,7140
16:20:28.176,,-53550,18060,7910
16:20:28.186,,-52150,15960,9030
16:20:28.196,,-50610,14420,10290
16:20:28.206,,-49560,14070,11690
16:20:28.216,,-48930,14280,12950
16:20:28.226,,-49070,14700,14070
16:20:28.236,,-49560,15120,14980
16:20:28.246,,-49980,15680,15330
16:20:28.256,,-50050,15890,15330
16:20:28.266,,-49980,16100,15190
16:20:28.276,,-49490,16170,14770
16:20:28.286,,-47740,15260,13090
16:20:28.296,,-46900,14560,11830
16:20:28.306,,-46340,13650,10500
16:20:28.316,,-45850,12810,9170
16:20:28.326,,-45080,12180,8050
16:20:28.336,,-43960,11760,7140
16:20:28.346,,-42700,11410,6300
16:20:28.356,,-41860,11620,5530
16:20:28.366,,-41650,12460,4900
16:20:28.376,,-41650,12950,4270
16:20:28.386,,-41440,12880,3500
16:20:28.396,,-40810,12810,2800
16:20:28.406,,-40250,12950,2240
16:20:28.416,,-39340,12670,1540
16:20:28.426,,-38990,12040,1050
16:20:28.436,,-39130,11410,560
16:20:28.446,,-40320,11200,280
16:20:28.456,,-42140,11760,350
16:20:28.466,,-43960,12600,420
16:20:28.476,,-45080,13230,140
16:20:28.486,,-45080,13090,-420
16:20:28.496,,-44030,12670,-1050
16:20:28.506,,-42700,11830,-1750
16:20:28.516,,-41510,11060,-2450
16:20:28.526,,-40390,10430,-2870
16:20:28.536,,-39620,9800,-2940
16:20:28.546,,-39410,8750,-3500
16:20:28.556,,-39200,8120,-4060
16:20:28.566,,-39340,7630,-4480
16:20:28.576,,-39550,7560,-4900
16:20:28.586,,-39480,7560,-5110
16:20:28.596,,-38710,7210,-4970
16:20:28.606,,-37590,6650,-4970
16:20:28.616,,-36190,5950,-4900
16:20:28.626,,-34930,5110,-4830
16:20:28.636,,-33880,4200,-4690
16:20:28.646,,-33390,3220,-4620
16:20:28.656,,-33530,2310,-4620
16:20:28.666,,-33950,1750,-4060
16:20:28.676,,-34440,1190,-3780
16:20:28.686,,-33670,700,-3500
16:20:28.696,,-32550,70,-3220
16:20:28.706,,-31570,-350,-2940
16:20:28.716,,-30520,-840,-2590
16:20:28.726,,-29470,-1750,-2380
16:20:28.736,,-28280,-2940,-2310
16:20:28.746,,-27020,-4060,-2100
16:20:28.756,,-25830,-5320,-1750
16:20:28.766,,-24430,-6720,-1260
16:20:28.776,,-22960,-8120,-700
16:20:28.786,,-21490,-9240,-210
16:20:28.796,,-20300,-10360,140
16:20:28.806,,-18970,-10150,0
16:20:28.816,,-18480,-9660,-140
16:20:28.826,,-17920,-9310,-210
16:20:28.836,,-16940,-9170,-140
16:20:28.846,,-16100,-9240,140
16:20:28.856,,-15260,-9520,420
16:20:28.866,,-14350,-10220,490
16:20:28.876,,-13510,-10990,700
16:20:28.886,,-12950,-11550,1050
16:20:28.896,,-12320,-11970,1750
16:20:28.906,,-11340,-12460,2240
16:20:28.916,,-10360,-12950,2450
16:20:28.926,,-6020,-13720,1470
16:20:28.936,,-3780,-13790,1820
16:20:28.946,,-3710,-12810,2730
16:20:28.956,,-2800,-12180,3360
16:20:28.966,,630,-13230,3710
16:20:28.976,,4410,-14770,3920
16:20:28.986,,6720,-15260,3920
16:20:28.996,,8540,-15330,3430
16:20:29.005,,10290,-15680,3080
16:20:29.015,,11060,-15610,3150
16:20:29.025,,10710,-15050,3360
16:20:29.035,,10080,-14770,3640
16:20:29.045,,9660,-14560,4270
16:20:29.055,,8680,-14420,3500
16:20:29.065,,10360,-14700,7000
16:20:29.198,,-9660,-3850,1050
16:20:29.199,,-9660,-3850,1050
16:20:29.200,,-9660,-3850,1050
16:20:29.202,,-9660,-3850,1050
16:20:29.203,,-9660,-3850,1050
16:20:29.205,,-8540,-4060,840
16:20:29.206,,-8540,-4060,840
16:20:29.207,,-8540,-4060,840
16:20:29.209,,-8540,-4060,840
16:20:29.210,,-8540,-4060,840
16:20:29.211,,-8540,-4060,840
16:20:29.213,,-8540,-4060,1260
16:20:29.214,,-7560,-3780,1260
16:20:29.215,,-7560,-3780,1260
16:20:29.217,,-7560,-3780,1260
16:20:29.225,,-6930,-2940,1470
16:20:29.235,,-6370,-1890,1330
16:20:29.245,,-5390,-1190,1120
16:20:29.255,,-5040,-700,1330
16:20:29.265,,-6020,-70,980
16:20:29.275,,-7980,770,770
16:20:29.285,,-10220,1680,630
16:20:29.295,,-12600,2240,700
16:20:29.305,,-14350,2590,770
16:20:29.315,,-14980,2030,630
16:20:29.325,,-14840,1890,70
16:20:29.335,,-14350,1820,-770
16:20:29.345,,-13650,1680,-1610
16:20:29.355,,-12950,1890,-2310
16:20:29.365,,-11900,2310,-2590
16:20:29.375,,-11130,3080,-2800
16:20:29.385,,-10710,4060,-3080
16:20:29.395,,-10290,5320,-3220
16:20:29.405,,-10430,6790,-3220
16:20:29.415,,-11060,8190,-3220
16:20:29.425,,-11760,9380,-3220
16:20:29.435,,-12110,10360,-2870
16:20:29.445,,-10990,9870,-2520
16:20:29.455,,-10010,9170,-2100
16:20:29.465,,-9380,8890,-1470
16:20:29.475,,-9800,9240,-770
16:20:29.485,,-11060,9870,210
16:20:29.495,,-12530,10710,1540
16:20:29.505,,-14000,11620,3080
16:20:29.515,,-15050,12110,4760
16:20:29.525,,-15330,12040,6160
16:20:29.535,,-14910,11410,7350
16:20:29.545,,-14350,10640,8190
16:20:29.555,,-13930,9940,8610
16:20:29.565,,-13930,8820,8820
16:20:29.575,,-14630,8820,8750
16:20:29.585,,-15050,9170,8680
16:20:29.595,,-15540,9940,8470
16:20:29.605,,-16100,11270,7980
16:20:29.615,,-16310,12530,7420
16:20:29.625,,-15960,13440,6860
16:20:29.635,,-15610,13930,6230
16:20:29.645,,-15750,14350,5460
16:20:29.655,,-16240,14700,4900
16:20:29.665,,-17220,14770,4550
16:20:29.675,,-18690,14560,4480
16:20:29.685,,-20300,14210,4550
16:20:29.695,,-22400,13020,5320
16:20:29.705,,-23100,12390,5740
16:20:29.715,,-23240,11060,6230
16:20:29.725,,-23030,8960,6720
16:20:29.735,,-23590,7630,7210
16:20:29.745,,-25900,8120,7700
16:20:29.755,,-29540,10150,8190
16:20:29.765,,-33250,12600,8260
16:20:29.775,,-35840,14700,8050
16:20:29.785,,-36820,16170,7420
16:20:29.795,,-36050,16940,6510
16:20:29.805,,-34230,17010,5600
16:20:29.815,,-31920,16380,4760
16:20:29.825,,-28350,13860,3220
16:20:29.835,,-27160,11970,2660
16:20:29.845,,-26390,10010,2170
16:20:29.855,,-26320,8750,1820
16:20:29.865,,-26810,8260,1680
16:20:29.875,,-27440,8330,1540
16:20:29.885,,-27930,8610,1470
16:20:29.895,,-27720,8750,1540
16:20:29.905,,-26670,8680,1610
16:20:29.915,,-24990,8470,1540
16:20:29.925,,-22050,8190,1120
16:20:29.935,,-18270,7350,420
16:20:29.945,,-17640,7560,630
16:20:29.955,,-17220,8190,1470
16:20:29.965,,-16660,7770,2660
16:20:29.975,,-18410,8470,3920
16:20:29.985,,-21350,9870,4550
16:20:29.995,,-23590,10570,4550
16:20:30.005,,-24360,10570,4550
16:20:30.015,,-24220,10640,4620
16:20:30.025,,-23590,10570,4830
16:20:30.035,,-22610,10150,5040
16:20:30.045,,-21560,9660,5390
16:20:30.055,,-20930,9590,5740
16:20:30.065,,-20790,9730,6020
16:20:30.075,,-20790,9590,6160
16:20:30.085,,-21070,7980,5740
16:20:30.095,,-21630,7000,4830
16:20:30.105,,-21490,5670,3920
16:20:30.115,,-20440,3850,2940
16:20:30.125,,-18970,1960,2170
16:20:30.135,,-17220,630,1540
16:20:30.145,,-15190,-280,770
16:20:30.155,,-12670,-1050,-70
16:20:30.165,,-9800,-1470,-770
16:20:30.175,,-7070,-1470,-1400
16:20:30.185,,-4620,-980,-1890
16:20:30.195,,-2240,-210,-2240
16:20:30.205,,-350,1400,-2940
16:20:30.215,,1470,2380,-3290
16:20:30.225,,2030,3150,-3710
16:20:30.235,,2310,3500,-4480
16:20:30.245,,2380,3780,-4830
16:20:30.255,,2100,3850,-4690
16:20:30.265,,1330,3920,-4690
16:20:30.275,,490,3920,-5110
16:20:30.285,,70,3500,-5530
16:20:30.295,,140,2800,-5740
16:20:30.305,,630,2100,-5880
16:20:30.315,,1330,1330,-5950
16:20:30.325,,2450,700,-5950
16:20:30.335,,5460,-420,-5600
16:20:30.345,,6930,-840,-5110
16:20:30.355,,8050,-1610,-4270
16:20:30.365,,8190,-2660,-3430
16:20:30.375,,7000,-3080,-2450
16:20:30.385,,4970,-2730,-1610
16:20:30.510,,1680,-420,3850
16:20:30.512,,1470,-210,4410
16:20:30.513,,1470,-210,4410
16:20:30.514,,1470,-210,4410
16:20:30.516,,1470,-210,4410
16:20:30.517,,1470,-210,4410
16:20:30.519,,1470,-210,4410
16:20:30.520,,1470,-210,4410
16:20:30.521,,1890,-420,4550
16:20:30.523,,1890,-420,4550
16:20:30.524,,1890,-420,4550
16:20:30.525,,1890,-420,4550
16:20:30.527,,1890,-420,4550
16:20:30.528,,1890,-420,4550
16:20:30.535,,2590,-910,4760
16:20:30.545,,3360,-1540,5110
16:20:30.555,,3990,-2030,5320
16:20:30.565,,4690,-2450,5390
16:20:30.575,,5460,-2940,5180
16:20:30.585,,6160,-3290,5040
16:20:30.595,,7140,-3640,4760
16:20:30.605,,7280,-3780,4830
16:20:30.615,,6860,-3570,4830
16:20:30.625,,6300,-3220,4620
16:20:30.635,,5810,-3010,4340
16:20:30.645,,5950,-3150,3990
16:20:30.655,,6440,-3640,3570
16:20:30.665,,7070,-4060,3150
16:20:30.675,,7630,-4340,2870
16:20:30.685,,8120,-4410,2520
16:20:30.695,,8470,-4550,2240
16:20:30.705,,8540,-4760,2100
16:20:30.715,,8190,-4550,2450
16:20:30.725,,6720,-3360,2660
16:20:30.735,,6160,-3080,2730
16:20:30.745,,6020,-3010,2590
16:20:30.755,,6090,-3220,2380
16:20:30.765,,6230,-3570,2170
16:20:30.775,,6300,-3920,1750
16:20:30.785,,6230,-4410,1330
16:20:30.795,,6020,-4760,910
16:20:30.805,,5670,-4830,420
16:20:30.815,,5180,-4760,140
16:20:30.825,,4550,-4550,-70
16:20:30.835,,3920,-4130,-210
16:20:30.845,,3570,-3640,-350
16:20:30.855,,3150,-2870,-490
16:20:30.865,,3080,-2450,-770
16:20:30.875,,3080,-2100,-1050
16:20:30.885,,3220,-2030,-1330
16:20:30.895,,3220,-2100,-1540
16:20:30.905,,3080,-2240,-1750
16:20:30.915,,2800,-2310,-1820
16:20:30.925,,2380,-2450,-2030
16:20:30.935,,2240,-2590,-2100
16:20:30.945,,2100,-2660,-1960
16:20:30.955,,2030,-2660,-1750
16:20:30.965,,2030,-2660,-1610
16:20:30.975,,2030,-2660,-1120
16:20:30.985,,1680,-2590,-980
16:20:30.995,,1470,-2520,-910
16:20:31.005,,1260,-2520,-770
16:20:31.015,,1120,-2450,-700
16:20:31.025,,910,-2310,-700
16:20:31.035,,560,-2100,-700
16:20:31.045,,560,-1960,-770
16:20:31.055,,420,-1820,-770
16:20:31.065,,280,-1610,-700
16:20:31.075,,350,-1540,-700
16:20:31.085,,560,-1540,-630
16:20:31.095,,840,-1680,-630
16:20:31.105,,1050,-2100,-630
16:20:31.115,,1120,-2310,-490
16:20:31.125,,1260,-2660,-350
16:20:31.135,,1120,-3010,-140
16:20:31.145,,700,-3220,280
16:20:31.155,,70,-3080,770
16:20:31.165,,-560,-2450,1120
16:20:31.175,,-980,-1750,1260
16:20:31.185,,-560,-1400,1190
16:20:31.195,,350,-1540,910
16:20:31.205,,1540,-2100,630
16:20:31.215,,2380,-2660,490
16:20:31.225,,2380,-2800,420
16:20:31.235,,560,-2240,350
16:20:31.245,,-350,-1960,490
16:20:31.255,,-840,-1470,700
16:20:31.265,,-770,-1190,980
16:20:31.275,,-490,-1050,1260
16:20:31.285,,-70,-910,1610
16:20:31.295,,280,-840,1820
16:20:31.305,,700,-840,1960
16:20:31.315,,910,-980,2030
16:20:31.325,,910,-1190,2170
16:20:31.335,,560,-1260,2380
16:20:31.345,,0,-1120,2520
16:20:31.355,,-210,-1050,2590
16:20:31.365,,0,-1260,2520
16:20:31.375,,140,-1470,2590
16:20:31.385,,140,-1330,2590
16:20:31.395,,210,-1330,2520
16:20:31.405,,280,-1470,2310
16:20:31.415,,490,-1400,2030
16:20:31.425,,630,-1260,1750
16:20:31.435,,910,-980,1400
16:20:31.445,,1260,-980,1190
16:20:31.455,,1610,-980,980
16:20:31.465,,1680,-910,980
16:20:31.475,,1470,-840,910
16:20:31.485,,1120,-700,980
16:20:31.495,,630,-210,980
16:20:31.505,,630,0,1120
16:20:31.515,,700,140,1190
16:20:31.525,,910,210,1190
16:20:31.535,,1050,140,1190
16:20:31.545,,1260,-70,1330
16:20:31.555,,1330,-280,1470
16:20:31.565,,1190,-280,1470
16:20:31.575,,910,-280,1470
16:20:31.585,,700,-210,1470
16:20:31.595,,560,-70,1330
16:20:31.605,,420,70,1120
16:20:31.615,,490,350,630
16:20:31.625,,770,560,350
16:20:31.635,,1050,630,70
16:20:31.645,,1330,700,-70
16:20:31.655,,1540,770,-210
16:20:31.665,,1610,840,-420
16:20:31.675,,1610,840,-630
16:20:31.685,,1400,910,-910
16:20:31.695,,1400,910,-1260
16:20:31.705,,1680,770,-1470
16:20:31.715,,1890,490,-1680
16:20:31.725,,2240,70,-1750
16:20:31.735,,2520,-140,-1960
16:20:31.745,,2730,-840,-2030
16:20:31.755,,2870,-1050,-2030
16:20:31.765,,2730,-1050,-2100
16:20:31.775,,2660,-980,-2100
16:20:31.785,,2590,-980,-2030
16:20:31.911,,4270,-2730,-980
16:20:31.912,,4060,-2800,-770
16:20:31.914,,4060,-2800,-770
16:20:31.915,,4060,-2800,-770
16:20:31.916,,4060,-2800,-770
16:20:31.918,,4060,-2800,-770
16:20:31.919,,4060,-2800,-770
16:20:31.921,,4060,-2800,-770
16:20:31.922,,3920,-2730,-420
16:20:31.923,,3920,-2730,-420
16:20:31.925,,3920,-2730,-420
16:20:31.926,,3920,-2730,-420
16:20:31.927,,3920,-2730,-420
16:20:31.929,,3920,-2730,-420
16:20:31.935,,3850,-2590,-140
16:20:31.945,,3780,-2380,70
16:20:31.955,,3990,-2310,420
16:20:31.965,,4480,-2450,700
16:20:31.975,,4830,-2730,1050
16:20:31.985,,5180,-3010,1330
16:20:31.995,,5320,-3290,1680
16:20:32.005,,4760,-3220,2660
16:20:32.015,,4200,-3010,3220
16:20:32.025,,3710,-2590,3780
16:20:32.035,,3360,-2240,4340
16:20:32.045,,3080,-1890,4830
16:20:32.055,,3220,-1750,5250
16:20:32.065,,3850,-2030,5460
16:20:32.075,,4480,-2450,5320
16:20:32.085,,5110,-2800,5180
16:20:32.095,,5530,-3220,4830
16:20:32.105,,5600,-3500,4340
16:20:32.115,,5460,-3500,3850
16:20:32.125,,4970,-3290,3360
16:20:32.135,,4340,-2450,2170
16:20:32.145,,4480,-2100,1610
16:20:32.155,,4620,-1820,1120
16:20:32.165,,4970,-1750,630
16:20:32.175,,5390,-1890,70
16:20:32.185,,5950,-2240,-420
16:20:32.195,,6440,-2660,-910
16:20:32.205,,6790,-3010,-1470
16:20:32.215,,7210,-3360,-2030
16:20:32.225,,7420,-3640,-2450
16:20:32.235,,7420,-3710,-2730
16:20:32.245,,7420,-3500,-2870
16:20:32.255,,7350,-3080,-3430
16:20:32.265,,7980,-2660,-3850
16:20:32.275,,8680,-2730,-4270
16:20:32.285,,9310,-2870,-4690
16:20:32.295,,9660,-3150,-5110
16:20:32.305,,9730,-3220,-5390
16:20:32.315,,9240,-3080,-5530
16:20:32.325,,8470,-2870,-5670
16:20:32.335,,7910,-2660,-5740
16:20:32.345,,7910,-2590,-5740
16:20:32.355,,8400,-3080,-5670
16:20:32.365,,9170,-3710,-5670
16:20:32.375,,9730,-4340,-5530
16:20:32.385,,9870,-4970,-5460
16:20:32.395,,9730,-5320,-5460
16:20:32.405,,9730,-5460,-5390
16:20:32.415,,9800,-5600,-5250
16:20:32.425,,10220,-5740,-5180
16:20:32.435,,10920,-6020,-5040
16:20:32.445,,11620,-6300,-4830
16:20:32.455,,12110,-6580,-4690
16:20:32.465,,12530,-6930,-4480
16:20:32.475,,12530,-6860,-4200
16:20:32.485,,12040,-6440,-3920
16:20:32.495,,11620,-5880,-3780
16:20:32.505,,11830,-5810,-3850
16:20:32.515,,13930,-6930,-3850
16:20:32.525,,14560,-7490,-3710
16:20:32.535,,14840,-7630,-3430
16:20:32.545,,14700,-7560,-3080
16:20:32.555,,14350,-7280,-2800
16:20:32.565,,13860,-6930,-2450
16:20:32.575,,13300,-6440,-2030
16:20:32.585,,13020,-6160,-1610
16:20:32.595,,13020,-6160,-1120
16:20:32.605,,13370,-6510,-840
16:20:32.615,,13790,-7070,-560
16:20:32.625,,14140,-7630,-420
16:20:32.635,,14280,-7910,-210
16:20:32.645,,14210,-8120,350
16:20:32.655,,14070,-7770,560
16:20:32.665,,14000,-7280,700
16:20:32.675,,14280,-6930,980
16:20:32.685,,14490,-6650,1260
16:20:32.695,,14560,-6370,1540
16:20:32.705,,14560,-5950,1750
16:20:32.715,,14420,-5530,1820
16:20:32.725,,14070,-5320,1820
16:20:32.735,,13930,-5250,1680
16:20:32.745,,13860,-5320,1470
16:20:32.755,,13930,-5530,1120
16:20:32.765,,13860,-5740,770
16:20:32.775,,12880,-6370,-350
16:20:32.785,,12530,-6650,-490
16:20:32.795,,12180,-6790,-560
16:20:32.805,,11480,-6650,-840
16:20:32.815,,10640,-6790,-1540
16:20:32.825,,9870,-7350,-2380
16:20:32.835,,9590,-8680,-3360
16:20:32.845,,9730,-10990,-4690
16:20:32.855,,10150,-11690,-4970
16:20:32.865,,10080,-10500,-4340
16:20:32.875,,10010,-9240,-3640
16:20:32.885,,10920,-8610,-3080
16:20:32.895,,12600,-7980,-1680
16:20:32.905,,15680,-6720,-980
16:20:32.915,,16240,-6300,-490
16:20:32.925,,16450,-6090,-210
16:20:32.935,,16100,-6020,-350
16:20:32.945,,15470,-6160,-560
16:20:32.955,,15190,-6370,-770
16:20:32.965,,15680,-6790,-840
16:20:32.975,,16450,-7210,-910
16:20:32.985,,17220,-7350,-1050
16:20:32.995,,17920,-7350,-1190
16:20:33.005,,18340,-7350,-1330
16:20:33.015,,18550,-7350,-1400
16:20:33.025,,18410,-7630,-1750
16:20:33.035,,16660,-7630,-1890
16:20:33.045,,15960,-7770,-2030
16:20:33.055,,15680,-7910,-2170
16:20:33.065,,15960,-8050,-2170
16:20:33.075,,16590,-8260,-2170
16:20:33.085,,17360,-8190,-2170
16:20:33.095,,17990,-8050,-2240
16:20:33.105,,18200,-7980,-2380
16:20:33.115,,17920,-7840,-2450
16:20:33.240,,17430,-5950,-2940
16:20:33.241,,17430,-5950,-2940
16:20:33.243,,17430,-5950,-2940
16:20:33.244,,17430,-5950,-2940
16:20:33.246,,17430,-5950,-2940
16:20:33.247,,17430,-5950,-2940
16:20:33.248,,17290,-6230,-3010
16:20:33.250,,17290,-6230,-3010
16:20:33.251,,17290,-6230,-3010
16:20:33.252,,17290,-6230,-3010
16:20:33.254,,17290,-6230,-3010
16:20:33.255,,17290,-6230,-3010
16:20:33.256,,17290,-6230,-3010
16:20:33.258,,17290,-6370,-2870
16:20:33.265,,17290,-6370,-2870
16:20:33.275,,17430,-6370,-2870
16:20:33.285,,18270,-6580,-3150
16:20:33.295,,19110,-6860,-3080
16:20:33.305,,20020,-7420,-2940
16:20:33.315,,20230,-7630,-2800
16:20:33.325,,19740,-7560,-3430
16:20:33.335,,19530,-7560,-2450
16:20:33.345,,20370,-8120,-420
16:20:33.355,,17500,-7140,-1190
16:20:33.365,,15470,-6650,-2170
16:20:33.375,,16240,-7980,-1470
16:20:33.385,,17010,-8960,-1470
16:20:33.395,,17920,-9380,-2450
16:20:33.405,,19600,-10150,-2800
16:20:33.415,,22400,-10920,-3010
16:20:33.425,,22260,-10640,-3150
16:20:33.435,,21140,-10220,-3290
16:20:33.445,,19950,-9940,-3430
16:20:33.455,,19040,-9730,-3570
16:20:33.465,,18620,-10150,-3920
16:20:33.475,,18830,-10920,-4550
16:20:33.485,,19810,-11900,-5390
16:20:33.495,,20440,-12110,-5460
16:20:33.505,,20300,-11830,-5320
16:20:33.515,,20790,-11900,-5810
16:20:33.525,,22330,-12460,-6580
16:20:33.535,,24220,-13300,-7070
16:20:33.545,,26740,-14070,-7280
16:20:33.555,,27440,-14490,-7490
16:20:33.565,,27370,-14560,-7770
16:20:33.575,,26390,-14070,-7980
16:20:33.585,,25270,-13230,-8330
16:20:33.595,,24570,-12530,-8540
16:20:33.605,,24780,-12460,-8960
16:20:33.615,,25410,-12950,-9310
16:20:33.625,,25620,-13090,-8890
16:20:33.635,,25200,-13300,-8400
16:20:33.645,,24220,-13510,-7980
16:20:33.655,,23030,-13440,-7490
16:20:33.665,,21560,-12880,-6720
16:20:33.675,,19950,-11760,-7420
16:20:33.685,,20300,-11690,-8050
16:20:33.695,,20930,-11340,-8260
16:20:33.705,,21770,-10780,-8330
16:20:33.715,,23170,-10220,-8260
16:20:33.725,,25130,-9660,-8050
16:20:33.735,,27370,-9030,-7980
16:20:33.745,,29820,-8260,-7700
16:20:33.755,,31710,-7350,-7350
16:20:33.765,,32830,-6440,-7280
16:20:33.775,,33320,-5670,-7210
16:20:33.785,,33390,-5180,-6930
16:20:33.795,,32830,-4060,-5810
16:20:33.805,,30800,-3500,-4760
16:20:33.815,,29820,-3010,-3640
16:20:33.825,,28210,-2240,-2730
16:20:33.835,,26950,-1260,-1610
16:20:33.845,,26320,-350,-350
16:20:33.855,,26460,140,700
16:20:33.865,,26460,700,1470
16:20:33.875,,26740,1120,2170
16:20:33.885,,27020,1330,2870
16:20:33.895,,26880,1470,3220
16:20:33.905,,26530,1470,3500
16:20:33.915,,25760,1470,3710
16:20:33.925,,22750,2240,4060
16:20:33.935,,20930,3080,4270
16:20:33.945,,19250,4060,4340
16:20:33.955,,18270,4830,4480
16:20:33.965,,18200,5110,4620
16:20:33.975,,18340,5250,4550
16:20:33.985,,18550,5460,4480
16:20:33.995,,19600,5670,4270
16:20:34.005,,21280,5600,4130
16:20:34.015,,22750,5390,3640
16:20:34.025,,24150,5180,3080
16:20:34.035,,24780,4970,2590
16:20:34.045,,24780,4340,2240
16:20:34.055,,22330,4760,2310
16:20:34.065,,20510,6020,2380
16:20:34.075,,19530,6790,2310
16:20:34.085,,19600,7140,2310
16:20:34.095,,20300,7210,2240
16:20:34.105,,21140,7280,2170
16:20:34.115,,21560,7350,1890
16:20:34.125,,21910,7280,1470
16:20:34.135,,22470,7070,1050
16:20:34.145,,22890,6790,630
16:20:34.155,,23660,6440,420
16:20:34.165,,24360,6020,490
16:20:34.175,,24640,5600,490
16:20:34.185,,22820,5670,630
16:20:34.195,,20230,6790,630
16:20:34.205,,17850,8120,560
16:20:34.215,,16450,9100,630
16:20:34.225,,16100,9590,770
16:20:34.235,,16380,9800,770
16:20:34.245,,17360,9590,910
16:20:34.255,,18900,8820,980
16:20:34.265,,21070,7350,1260
16:20:34.275,,22330,6230,1750
16:20:34.285,,23380,5600,2030
16:20:34.295,,23940,5320,2450
16:20:34.305,,24010,5180,2380
16:20:34.315,,24640,5040,2310
16:20:34.325,,24920,5110,2030
16:20:34.335,,25200,5250,1960
16:20:34.345,,25130,5600,1400
16:20:34.355,,25690,5670,1050
16:20:34.365,,27300,4760,980
16:20:34.375,,28420,3850,910
16:20:34.385,,29050,3150,910
16:20:34.395,,29260,2380,700
16:20:34.405,,29400,1540,420
16:20:34.415,,29890,770,350
16:20:34.425,,29400,770,140
16:20:34.556,,23870,630,-3220
16:20:34.557,,25620,630,-3220
16:20:34.558,,25620,630,-3220
16:20:34.560,,25620,630,-3220
16:20:34.561,,25620,630,-3220
16:20:34.562,,25620,630,-3220
16:20:34.564,,25620,630,-3220
16:20:34.565,,27370,910,-1820
16:20:34.566,,27370,910,-1820
16:20:34.568,,27370,910,-1820
16:20:34.569,,27370,910,-1820
16:20:34.571,,27370,910,-1820
16:20:34.572,,27370,910,-1820
16:20:34.573,,27370,910,-1820
16:20:34.575,,27440,2100,-490
16:20:34.585,,26740,4270,140
16:20:34.595,,25970,5110,910
16:20:34.605,,25900,4900,2100
16:20:34.615,,25410,5040,3010
16:20:34.625,,24850,5390,3430
16:20:34.635,,24220,5600,3990
16:20:34.645,,24220,5880,4970
16:20:34.655,,24990,6300,6160
16:20:34.665,,25970,7350,7280
16:20:34.675,,27020,8470,7840
16:20:34.685,,28490,7840,7910
16:20:34.695,,31290,5180,7700
16:20:34.705,,30870,4550,7140
16:20:34.715,,29540,3990,6580
16:20:34.725,,27650,3360,5950
16:20:34.735,,25690,3010,5180
16:20:34.745,,23520,3150,4480
16:20:34.755,,20930,4410,4550
16:20:34.765,,18130,6230,5040
16:20:34.775,,15750,7700,5460
16:20:34.785,,14560,8330,5530
16:20:34.795,,14700,8190,5600
16:20:34.805,,15330,7700,5670
16:20:34.815,,15750,6860,5530
16:20:34.825,,15680,5670,5880
16:20:34.835,,15820,5110,6230
16:20:34.845,,15680,4410,6230
16:20:34.855,,15330,4060,6300
16:20:34.865,,15120,4060,6790
16:20:34.875,,14980,4410,7560
16:20:34.885,,14910,4760,8470
16:20:34.895,,15330,4760,9310
16:20:34.905,,15820,4620,10010
16:20:34.915,,15820,4760,10570
16:20:34.925,,14910,5040,10780
16:20:34.935,,13580,4970,10920
16:20:34.945,,11620,4480,10640
16:20:34.955,,7700,2450,8400
16:20:34.965,,5950,1330,7350
16:20:34.975,,4830,70,6370
16:20:34.985,,4620,-700,5530
16:20:34.995,,4970,-1260,5390
16:20:35.005,,5530,-1680,5530
16:20:35.015,,6090,-2030,5390
16:20:35.025,,6300,-1820,4970
16:20:35.035,,6790,-1330,4830
16:20:35.045,,7490,-910,5180
16:20:35.055,,7770,-70,5880
16:20:35.065,,7770,1330,6860
16:20:35.075,,7840,3080,7770
16:20:35.085,,9730,5320,7560
16:20:35.095,,11130,5880,7000
16:20:35.105,,12460,5880,6440
16:20:35.115,,13370,6090,6090
16:20:35.125,,13650,6230,5740
16:20:35.135,,13580,5810,4900
16:20:35.145,,13230,5320,3920
16:20:35.155,,12740,5110,3290
16:20:35.165,,11970,5110,2870
16:20:35.175,,10920,5110,2520
16:20:35.185,,9730,4830,1610
16:20:35.195,,8400,4620,490
16:20:35.205,,7140,4060,-1120
16:20:35.215,,5320,4270,-1750
16:20:35.225,,4620,4830,-2310
16:20:35.235,,5110,4760,-2030
16:20:35.245,,4900,4550,-2660
16:20:35.255,,4130,4830,-3500
16:20:35.265,,4060,4900,-4060
16:20:35.275,,4830,4270,-4550
16:20:35.285,,4900,4340,-4830
16:20:35.295,,5180,4200,-5390
16:20:35.305,,6510,3500,-5950
16:20:35.315,,7630,2590,-6510
16:20:35.325,,8820,1470,-7000
16:20:35.335,,10150,-1470,-7490
16:20:35.345,,10920,-2590,-7280
16:20:35.355,,9660,-2940,-6930
16:20:35.365,,8120,-2800,-6930
16:20:35.375,,7280,-2730,-7420
16:20:35.385,,7490,-2380,-7490
16:20:35.395,,8050,-2870,-6370
16:20:35.405,,9380,-3430,-5950
16:20:35.415,,10990,-3500,-5250
16:20:35.425,,12460,-3640,-4690
16:20:35.435,,13720,-4060,-4340
16:20:35.445,,14560,-4830,-4060
16:20:35.455,,14980,-5390,-3920
16:20:35.465,,15260,-6440,-3500
16:20:35.475,,15050,-6720,-3500
16:20:35.485,,15330,-7140,-3570
16:20:35.495,,16310,-7910,-3710
16:20:35.505,,17430,-8750,-4060
16:20:35.515,,18550,-9380,-4410
16:20:35.525,,19530,-9940,-4270
16:20:35.535,,20580,-10640,-3570
16:20:35.545,,21560,-11130,-2170
16:20:35.555,,22050,-11620,-1820
16:20:35.565,,21980,-11760,-2380
16:20:35.575,,22260,-11550,-2730
16:20:35.585,,23450,-11690,-2520
16:20:35.595,,25830,-11480,-630
16:20:35.605,,27370,-11830,70
16:20:35.615,,28070,-11900,700
16:20:35.625,,27790,-11690,1470
16:20:35.635,,26670,-11480,2030
16:20:35.645,,25060,-11480,2520
16:20:35.655,,23240,-11480,3010
